id,valenceE,response.keys,rt,rtms,logrt,trial,word,prom.v201,-0.5,up,0.77643013,776.43013,6.654706658,1,insecure,3.8201,-0.5,down,0.941252947,941.252947,6.84721191,2,antisocial,3.8201,-0.5,down,0.79353714,793.53714,6.676500344,3,moody,3.8201,-0.5,down,0.775604963,775.604963,6.653643322,4,impulsive,3.8201,-0.5,down,0.726908922,726.908922,6.58880119,5,tense,3.8201,0.5,down,0.893244982,893.244982,6.794860879,6,tender,3.8201,-0.5,down,0.559097052,559.097052,6.326323075,7,irritable,3.8201,0.5,up,0.809092999,809.092999,6.695913866,8,thrifty,3.8201,0.5,down,0.908303976,908.303976,6.811579098,9,brilliant,3.8201,0.5,up,0.977444172,977.444172,6.884941177,10,wise,3.8201,-0.5,down,1.059674025,1059.674025,6.965716616,11,boring,3.8201,-0.5,up,0.826735973,826.735973,6.717485385,12,clumsy,3.8201,-0.5,up,0.843029976,843.029976,6.737002516,13,anxious,3.8201,0.5,up,0.840566874,840.566874,6.734076514,14,enthusiastic,3.8201,0.5,up,0.675525904,675.525904,6.515491505,15,ambitious,3.8201,-0.5,down,1.026120901,1026.120901,6.933540856,16,childish,3.8201,0.5,NA,NA,NA,NA,17,outgoing,3.8201,-0.5,up,1.559458017,1559.458017,7.352093615,18,fearful,3.8201,0.5,up,1.175184965,1175.184965,7.069180831,19,courageous,3.8201,0.5,up,0.991899014,991.899014,6.899621302,20,confident,3.8201,-0.5,down,0.976801157,976.801157,6.884283107,21,timid,3.8201,0.5,down,1.060844898,1060.844898,6.966820943,22,tidy,3.8201,0.5,up,0.75861001,758.61001,6.631487825,23,persistent,3.8201,-0.5,down,0.992153168,992.153168,6.899877499,24,forgetful,3.8201,0.5,up,0.792772055,792.772055,6.675535734,25,orderly,3.8201,0.5,up,0.990331173,990.331173,6.898039405,26,talented,3.8201,-0.5,up,0.993607998,993.607998,6.901342761,27,messy,3.8201,0.5,up,1.192473888,1192.473888,7.083785326,28,trusting,3.8201,0.5,up,1.343604088,1343.604088,7.2031109,29,proud,3.8201,0.5,up,0.774923801,774.923801,6.652764703,30,disciplined,3.8201,-0.5,up,0.626119852,626.119852,6.43954181,31,stubborn,3.8201,-0.5,up,1.075531006,1075.531006,6.980569778,32,inhibited,3.8201,0.5,down,0.794030905,794.030905,6.677122384,33,neat,3.8201,-0.5,up,0.809218168,809.218168,6.696068557,34,worrying,3.8201,-0.5,up,0.659615994,659.615994,6.491657838,35,cynical,3.8201,-0.5,down,0.742600918,742.600918,6.610158778,36,gullible,3.8201,0.5,up,0.625544786,625.544786,6.438622928,37,idealistic,3.8201,-0.5,down,0.958754063,958.754063,6.86563459,38,withdrawn,3.8201,0.5,down,0.875257015,875.257015,6.774517575,39,artistic,3.8201,0.5,up,0.742246151,742.246151,6.609680928,40,inventive,3.8202,-0.5,down,1.476244926,1476.244926,7.29725693,1,insecure,3.8202,0.5,up,0.72498703,724.98703,6.586153765,2,disciplined,3.8202,-0.5,up,1.108602047,1108.602047,7.010855083,3,irritable,3.8202,-0.5,down,1.358779907,1358.779907,7.214342449,4,withdrawn,3.8202,0.5,up,0.725842953,725.842953,6.587333673,5,trusting,3.8202,0.5,up,0.592477083,592.477083,6.384312194,6,talented,3.8202,-0.5,down,1.625715971,1625.715971,7.393703595,7,childish,3.8202,-0.5,down,1.510065079,1510.065079,7.319908028,8,messy,3.8202,-0.5,up,0.808880091,808.880091,6.695650687,9,worrying,3.8202,0.5,up,0.757745981,757.745981,6.630348212,10,persistent,3.8202,0.5,up,0.591758966,591.758966,6.3830994,11,courageous,3.8202,-0.5,down,2.126034021,2126.034021,7.662013561,12,fearful,3.8202,-0.5,up,0.709203005,709.203005,6.564141811,13,stubborn,3.8202,0.5,up,0.576113939,576.113939,6.356305452,14,proud,3.8202,-0.5,up,0.876847982,876.847982,6.776333639,15,tense,3.8202,0.5,up,0.792936087,792.936087,6.675742622,16,orderly,3.8202,0.5,up,1.444204092,1444.204092,7.275313647,17,tidy,3.8202,0.5,up,0.575605869,575.605869,6.355423171,18,confident,3.8202,-0.5,up,0.893532038,893.532038,6.795182191,19,moody,3.8202,-0.5,down,1.242665052,1242.665052,7.125013588,20,clumsy,3.8202,-0.5,up,1.109902859,1109.902859,7.012027776,21,boring,3.8202,0.5,up,0.775460005,775.460005,6.653456408,22,ambitious,3.8202,-0.5,down,1.043532848,1043.532848,6.950367205,23,timid,3.8202,-0.5,down,1.308906078,1308.906078,7.176947012,24,inhibited,3.8202,0.5,up,1.324153185,1324.153185,7.188528428,25,enthusiastic,3.8202,0.5,up,1.308738947,1308.738947,7.176819317,26,wise,3.8202,0.5,down,1.342797995,1342.797995,7.202510772,27,thrifty,3.8202,0.5,up,0.608772993,608.772993,6.411445445,28,outgoing,3.8202,0.5,up,0.611086845,611.086845,6.415239085,29,neat,3.8202,0.5,down,1.092108965,1092.108965,6.995865936,30,inventive,3.8202,-0.5,up,0.992635012,992.635012,6.900363036,31,forgetful,3.8202,-0.5,down,1.191838026,1191.838026,7.083251954,32,antisocial,3.8202,-0.5,up,0.926002026,926.002026,6.830876423,33,anxious,3.8202,0.5,up,0.792806864,792.806864,6.675579641,34,tender,3.8202,0.5,up,0.758482933,758.482933,6.631320298,35,idealistic,3.8202,0.5,up,0.575559855,575.559855,6.355343228,36,brilliant,3.8202,-0.5,up,0.393021107,393.021107,5.973863318,37,cynical,3.8202,-0.5,down,1.026015997,1026.015997,6.933438617,38,gullible,3.8202,0.5,down,1.242034912,1242.034912,7.124506372,39,artistic,3.8202,-0.5,up,1.642158031,1642.158031,7.403766528,40,impulsive,3.8204,0.5,up,0.97615695,976.15695,6.883623383,1,artistic,4.4204,-0.5,down,0.742563009,742.563009,6.610107728,2,gullible,4.4204,0.5,up,0.594193935,594.193935,6.387205756,3,neat,4.4204,-0.5,down,0.775370121,775.370121,6.653340491,4,impulsive,4.4204,0.5,up,0.809697151,809.697151,6.69666029,5,thrifty,4.4204,0.5,up,0.592213154,592.213154,6.383866628,6,ambitious,4.4204,0.5,up,0.809190035,809.190035,6.696033791,7,trusting,4.4204,0.5,down,0.842602015,842.602015,6.736494741,8,outgoing,4.4204,0.5,up,0.943104982,943.104982,6.849177604,9,proud,4.4204,-0.5,down,0.609926224,609.926224,6.413338006,10,boring,4.4204,0.5,up,1.091324806,1091.324806,6.995147656,11,courageous,4.4204,-0.5,down,0.875722885,875.722885,6.7750497,12,insecure,4.4204,0.5,up,0.709933996,709.933996,6.565172002,13,tender,4.4204,-0.5,down,0.959984064,959.984064,6.866916684,14,clumsy,4.4204,-0.5,down,0.743292093,743.292093,6.611089094,15,moody,4.4204,-0.5,down,0.725885868,725.885868,6.587392796,16,childish,4.4204,-0.5,down,1.058744907,1058.744907,6.964839436,17,inhibited,4.4204,-0.5,down,0.792232037,792.232037,6.674854325,18,withdrawn,4.4204,-0.5,down,0.726948023,726.948023,6.58885498,19,messy,4.4204,-0.5,down,0.858376026,858.376026,6.755042262,20,antisocial,4.4204,0.5,down,1.391800165,1391.800165,7.238353271,21,inventive,4.4204,-0.5,down,1.176858902,1176.858902,7.070604221,22,timid,4.4204,0.5,up,0.858991861,858.991861,6.755759447,23,brilliant,4.4204,-0.5,down,0.825510025,825.510025,6.716001407,24,forgetful,4.4204,0.5,up,0.792859077,792.859077,6.675645497,25,orderly,4.4204,-0.5,down,0.593091011,593.091011,6.385347863,26,fearful,4.4204,0.5,up,0.756456137,756.456137,6.62864455,27,persistent,4.4204,-0.5,up,0.909418821,909.418821,6.812805737,28,cynical,4.4204,-0.5,down,0.676243067,676.243067,6.516552578,29,anxious,4.4204,-0.5,up,0.775966883,775.966883,6.654109843,30,stubborn,4.4204,0.5,down,0.891038895,891.038895,6.79238808,31,enthusiastic,4.4204,0.5,up,0.561015844,561.015844,6.329749148,32,wise,4.4204,-0.5,down,0.791898966,791.898966,6.674433815,33,irritable,4.4204,0.5,up,0.624965906,624.965906,6.437697098,34,disciplined,4.4204,0.5,up,0.727607012,727.607012,6.589761084,35,tidy,4.4204,-0.5,up,0.909124851,909.124851,6.812482435,36,worrying,4.4204,0.5,up,0.642563105,642.563105,6.46546503,37,talented,4.4204,0.5,up,1.04205513,1042.05513,6.948950129,38,confident,4.4204,-0.5,down,0.993720055,993.720055,6.901455532,39,tense,4.4204,0.5,up,0.674777985,674.777985,6.514383726,40,idealistic,4.4205,0.5,up,0.591831923,591.831923,6.383222681,1,courageous,4.2205,0.5,up,0.991534948,991.534948,6.899254195,2,persistent,4.2205,-0.5,down,1.275992155,1275.992155,7.151479316,3,fearful,4.2205,0.5,up,0.808661938,808.661938,6.695380953,4,idealistic,4.2205,-0.5,up,0.910298824,910.298824,6.813772924,5,messy,4.2205,0.5,down,0.694205999,694.205999,6.542768745,6,tidy,4.2205,0.5,down,1.059420109,1059.420109,6.96547697,7,thrifty,4.2205,0.5,up,0.693953991,693.953991,6.542405663,8,wise,4.2205,0.5,up,0.624419928,624.419928,6.436823104,9,enthusiastic,4.2205,0.5,up,0.493678093,493.678093,6.201883671,10,proud,4.2205,-0.5,down,1.02561903,1025.61903,6.933051641,11,inhibited,4.2205,0.5,up,0.591995955,591.995955,6.383499802,12,trusting,4.2205,-0.5,down,0.860255003,860.255003,6.75722886,13,tense,4.2205,0.5,up,0.558450937,558.450937,6.325166767,14,brilliant,4.2205,0.5,up,0.659235001,659.235001,6.491080073,15,artistic,4.2205,0.5,up,0.608848095,608.848095,6.411568803,16,inventive,4.2205,-0.5,down,0.72619009,726.19009,6.587811813,17,timid,4.2205,0.5,up,0.658960104,658.960104,6.490662992,18,ambitious,4.2205,-0.5,up,0.959417105,959.417105,6.866325918,19,anxious,4.2205,-0.5,down,0.975620031,975.620031,6.883073198,20,insecure,4.2205,0.5,up,0.608618021,608.618021,6.411190848,21,talented,4.2205,-0.5,down,0.609812975,609.812975,6.413152312,22,boring,4.2205,-0.5,up,0.825910091,825.910091,6.716485919,23,stubborn,4.2205,0.5,down,1.192785978,1192.785978,7.084047008,24,orderly,4.2205,-0.5,down,1.159035206,1159.035206,7.055343219,25,childish,4.2205,0.5,up,0.673360825,673.360825,6.51228133,26,confident,4.2205,-0.5,down,0.742149115,742.149115,6.609550187,27,gullible,4.2205,-0.5,down,0.959029198,959.029198,6.865921521,28,forgetful,4.2205,-0.5,down,0.825516939,825.516939,6.716009783,29,withdrawn,4.2205,0.5,up,0.625952959,625.952959,6.439275223,30,outgoing,4.2205,-0.5,up,0.608275175,608.275175,6.41062737,31,impulsive,4.2205,-0.5,down,0.677009106,677.009106,6.517684723,32,moody,4.2205,-0.5,down,0.675136089,675.136089,6.514914284,33,irritable,4.2205,-0.5,down,0.742599964,742.599964,6.610157493,34,worrying,4.2205,0.5,down,0.843481064,843.481064,6.737537452,35,tender,4.2205,-0.5,down,1.109861851,1109.861851,7.011990828,36,clumsy,4.2205,-0.5,down,0.875087023,875.087023,6.774323336,37,antisocial,4.2205,-0.5,up,1.476138115,1476.138115,7.297184575,38,cynical,4.2205,0.5,down,0.743746042,743.746042,6.611699635,39,neat,4.2205,0.5,down,0.858274937,858.274937,6.754924488,40,disciplined,4.2206,0.5,up,1.692242146,1692.242146,7.433809642,1,inventive,3.8206,0.5,up,1.107909918,1107.909918,7.010230563,2,persistent,3.8206,0.5,up,0.777783155,777.783155,6.656447764,3,wise,3.8206,0.5,up,0.543775082,543.775082,6.298535709,4,proud,3.8206,-0.5,up,1.010191917,1010.191917,6.917895609,5,timid,3.8206,0.5,up,0.758888006,758.888006,6.631854212,6,confident,3.8206,-0.5,down,1.775093079,1775.093079,7.481608139,7,antisocial,3.8206,-0.5,up,1.226480961,1226.480961,7.111904341,8,tense,3.8206,0.5,up,0.991919041,991.919041,6.899641492,9,idealistic,3.8206,0.5,up,1.992902994,1992.902994,7.597347646,10,orderly,3.8206,0.5,up,0.958047867,958.047867,6.864897742,11,disciplined,3.8206,-0.5,down,2.393347025,2393.347025,7.780448094,12,moody,3.8206,-0.5,up,2.075634956,2075.634956,7.638022389,13,worrying,3.8206,0.5,NA,NA,NA,NA,14,thrifty,3.8206,-0.5,down,1.426523209,1426.523209,7.26299544,15,clumsy,3.8206,0.5,down,1.325443029,1325.443029,7.189502044,16,brilliant,3.8206,-0.5,down,1.342103958,1342.103958,7.20199378,17,irritable,3.8206,0.5,up,1.260746002,1260.746002,7.13945889,18,tidy,3.8206,0.5,up,2.057298899,2057.298899,7.629149187,19,enthusiastic,3.8206,-0.5,down,1.209676027,1209.676027,7.098107856,20,messy,3.8206,0.5,up,0.958747864,958.747864,6.865628125,21,ambitious,3.8206,-0.5,up,1.02580905,1025.80905,6.933236897,22,stubborn,3.8206,0.5,up,1.325829983,1325.829983,7.189793945,23,artistic,3.8206,-0.5,down,1.875941992,1875.941992,7.536866208,24,gullible,3.8206,-0.5,up,1.142789125,1142.789125,7.041227154,25,cynical,3.8206,-0.5,up,0.957433939,957.433939,6.864256725,26,fearful,3.8206,-0.5,up,0.808756113,808.756113,6.695497404,27,impulsive,3.8206,-0.5,up,1.208849907,1208.849907,7.097424697,28,withdrawn,3.8206,0.5,up,0.644442081,644.442081,6.468384952,29,neat,3.8206,-0.5,up,1.575773001,1575.773001,7.362501225,30,childish,3.8206,-0.5,up,0.992838144,992.838144,6.900567654,31,anxious,3.8206,0.5,up,1.99169302,1991.69302,7.59674032,32,courageous,3.8206,-0.5,up,1.075459003,1075.459003,6.980502829,33,insecure,3.8206,0.5,down,2.359774828,2359.774828,7.766321482,34,tender,3.8206,-0.5,NA,NA,NA,NA,35,inhibited,3.8206,0.5,down,2.109028101,2109.028101,7.653982505,36,talented,3.8206,0.5,up,0.992624998,992.624998,6.900352947,37,trusting,3.8206,-0.5,down,1.975251913,1975.251913,7.58845122,38,forgetful,3.8206,-0.5,down,1.376128912,1376.128912,7.2270297,39,boring,3.8206,0.5,up,1.775929213,1775.929213,7.482079065,40,outgoing,3.8207,-0.5,up,1.343882084,1343.882084,7.203317782,1,tense,2.4207,0.5,up,0.74296999,742.96999,6.610655654,2,orderly,2.4207,-0.5,down,1.291796923,1291.796923,7.163789492,3,irritable,2.4207,-0.5,up,0.892853022,892.853022,6.794421978,4,cynical,2.4207,0.5,up,1.308094025,1308.094025,7.176326414,5,disciplined,2.4207,0.5,down,0.909583092,909.583092,6.812986354,6,thrifty,2.4207,-0.5,down,0.959226847,959.226847,6.866127592,7,gullible,2.4207,-0.5,down,1.493531942,1493.531942,7.308899025,8,messy,2.4207,-0.5,down,1.125853062,1125.853062,7.026296305,9,fearful,2.4207,0.5,down,0.825963974,825.963974,6.716551158,10,outgoing,2.4207,0.5,up,1.425610065,1425.610065,7.262355117,11,trusting,2.4207,-0.5,down,1.87605691,1876.05691,7.536927465,12,anxious,2.4207,-0.5,down,1.225747108,1225.747108,7.111305821,13,worrying,2.4207,-0.5,up,1.025372982,1025.372982,6.93281171,14,inhibited,2.4207,0.5,down,1.027295113,1027.295113,6.934684523,15,tidy,2.4207,-0.5,up,1.009133101,1009.133101,6.916846925,16,childish,2.4207,0.5,up,1.209666967,1209.666967,7.098100367,17,tender,2.4207,-0.5,up,1.375742912,1375.742912,7.226749164,18,stubborn,2.4207,-0.5,down,0.759648085,759.648085,6.63285528,19,moody,2.4207,0.5,up,1.558882952,1558.882952,7.351724787,20,inventive,2.4207,-0.5,up,0.975054979,975.054979,6.882493858,21,forgetful,2.4207,0.5,up,1.094177008,1094.177008,6.997757769,22,neat,2.4207,0.5,up,1.393516064,1393.516064,7.239585375,23,proud,2.4207,0.5,down,1.808756113,1808.756113,7.500394658,24,brilliant,2.4207,-0.5,NA,NA,NA,NA,25,impulsive,2.4207,-0.5,up,1.42624712,1426.24712,7.262801882,26,boring,2.4207,-0.5,up,0.806234837,806.234837,6.692375061,27,antisocial,2.4207,-0.5,up,0.827190876,827.190876,6.718035474,28,timid,2.4207,0.5,down,1.108925104,1108.925104,7.01114645,29,confident,2.4207,0.5,down,1.342428923,1342.428923,7.202235881,30,talented,2.4207,0.5,up,1.32770896,1327.70896,7.191210149,31,wise,2.4207,0.5,down,1.491785049,1491.785049,7.307728701,32,idealistic,2.4207,0.5,down,0.709349871,709.349871,6.564348876,33,artistic,2.4207,0.5,down,1.724634886,1724.634886,7.452770647,34,courageous,2.4207,0.5,up,1.042338848,1042.338848,6.949222359,35,ambitious,2.4207,0.5,down,0.874420166,874.420166,6.773560999,36,enthusiastic,2.4207,0.5,down,1.441871881,1441.871881,7.273697466,37,persistent,2.4207,-0.5,up,1.026082993,1026.082993,6.933503912,38,insecure,2.4207,-0.5,up,1.393231869,1393.231869,7.239381413,39,clumsy,2.4207,-0.5,up,0.775135994,775.135994,6.65303849,40,withdrawn,2.4208,0.5,up,0.692425966,692.425966,6.540201324,1,ambitious,3.8208,-0.5,down,0.909203053,909.203053,6.81256845,2,worrying,3.8208,0.5,up,0.675431013,675.431013,6.515351025,3,confident,3.8208,0.5,up,0.726346016,726.346016,6.588026507,4,orderly,3.8208,-0.5,down,1.009576797,1009.576797,6.917286509,5,anxious,3.8208,0.5,up,0.858274221,858.274221,6.754923653,6,courageous,3.8208,0.5,up,0.57754302,577.54302,6.358782933,7,wise,3.8208,0.5,down,1.39399004,1393.99004,7.239925446,8,neat,3.8208,0.5,up,0.675653934,675.653934,6.515681013,9,brilliant,3.8208,0.5,up,0.609398842,609.398842,6.412472966,10,trusting,3.8208,0.5,down,1.042484999,1042.484999,6.949362564,11,artistic,3.8208,-0.5,up,1.508887053,1508.887053,7.319127607,12,inhibited,3.8208,-0.5,down,1.393176079,1393.176079,7.239341369,13,boring,3.8208,0.5,up,0.808970928,808.970928,6.695762981,14,outgoing,3.8208,-0.5,up,1.042997122,1042.997122,6.949853696,15,cynical,3.8208,-0.5,up,1.808999062,1808.999062,7.500528967,16,insecure,3.8208,-0.5,down,1.04351306,1043.51306,6.950348242,17,moody,3.8208,-0.5,up,1.559073925,1559.073925,7.351847286,18,childish,3.8208,-0.5,down,1.042222977,1042.222977,6.949111189,19,irritable,3.8208,-0.5,down,2.359529018,2359.529018,7.766217309,20,messy,3.8208,0.5,up,0.691537142,691.537142,6.538916862,21,disciplined,3.8208,-0.5,up,1.343027115,1343.027115,7.202681386,22,clumsy,3.8208,0.5,up,0.71031785,710.31785,6.565712546,23,proud,3.8208,0.5,down,1.325147867,1325.147867,7.18927933,24,idealistic,3.8208,-0.5,down,1.692265034,1692.265034,7.433823167,25,forgetful,3.8208,-0.5,up,1.473322153,1473.322153,7.295275098,26,withdrawn,3.8208,-0.5,up,1.342444897,1342.444897,7.20224778,27,stubborn,3.8208,0.5,down,1.177889824,1177.889824,7.071479832,28,tidy,3.8208,0.5,down,1.425717831,1425.717831,7.262430707,29,talented,3.8208,-0.5,down,1.609220028,1609.220028,7.383504886,30,gullible,3.8208,-0.5,down,1.29352212,1293.52212,7.165124102,31,timid,3.8208,-0.5,down,1.576267958,1576.267958,7.36281528,32,tense,3.8208,0.5,up,1.042336941,1042.336941,6.94922053,33,thrifty,3.8208,-0.5,down,1.425136805,1425.136805,7.262023092,34,antisocial,3.8208,-0.5,down,1.525610924,1525.610924,7.330150215,35,impulsive,3.8208,0.5,up,1.725358963,1725.358963,7.453190402,36,inventive,3.8208,0.5,up,0.825052023,825.052023,6.715446443,37,persistent,3.8208,-0.5,down,0.776310921,776.310921,6.654553111,38,fearful,3.8208,0.5,down,1.109466076,1109.466076,7.011634166,39,tender,3.8208,0.5,up,1.174496889,1174.496889,7.068595155,40,enthusiastic,3.8209,0.5,up,1.974887133,1974.887133,7.588266528,1,idealistic,3.4209,0.5,up,1.526073933,1526.073933,7.33045366,2,tender,3.4209,-0.5,down,1.009165049,1009.165049,6.916878584,3,gullible,3.4209,0.5,up,0.860822201,860.822201,6.75788798,4,tidy,3.4209,-0.5,down,0.793314934,793.314934,6.676220285,5,clumsy,3.4209,0.5,down,0.911088228,911.088228,6.81463974,6,wise,3.4209,-0.5,down,0.776873827,776.873827,6.655277952,7,messy,3.4209,-0.5,down,0.776567221,776.567221,6.654883208,8,moody,3.4209,0.5,up,1.508433104,1508.433104,7.318826712,9,courageous,3.4209,0.5,down,1.258821011,1258.821011,7.137930856,10,ambitious,3.4209,-0.5,down,0.792057037,792.057037,6.674633406,11,forgetful,3.4209,-0.5,up,1.342412949,1342.412949,7.202223982,12,insecure,3.4209,0.5,down,1.109182835,1109.182835,7.011378839,13,outgoing,3.4209,-0.5,down,0.791896105,791.896105,6.674430203,14,impulsive,3.4209,-0.5,up,1.526469946,1526.469946,7.330713124,15,boring,3.4209,0.5,up,0.744368076,744.368076,6.612535638,16,neat,3.4209,-0.5,up,1.326133013,1326.133013,7.190022477,17,cynical,3.4209,-0.5,down,1.676575899,1676.575899,7.424508837,18,tense,3.4209,-0.5,down,1.292582989,1292.582989,7.164397812,19,stubborn,3.4209,0.5,down,1.207241058,1207.241058,7.096092918,20,enthusiastic,3.4209,0.5,down,1.775550127,1775.550127,7.481865585,21,confident,3.4209,0.5,down,0.842138052,842.138052,6.735943958,22,inventive,3.4209,-0.5,up,1.709336042,1709.336042,7.443860295,23,anxious,3.4209,0.5,down,1.560023069,1560.023069,7.352455888,24,proud,3.4209,-0.5,down,0.909039974,909.039974,6.812389069,25,childish,3.4209,-0.5,down,1.991183043,1991.183043,7.596484235,26,timid,3.4209,0.5,down,0.942145109,942.145109,6.848159306,27,brilliant,3.4209,0.5,up,1.191556931,1191.556931,7.083016076,28,disciplined,3.4209,0.5,down,0.742496014,742.496014,6.610017502,29,artistic,3.4209,-0.5,NA,NA,NA,NA,30,worrying,3.4209,-0.5,down,0.80882597,808.82597,6.695583776,31,irritable,3.4209,-0.5,down,0.809678078,809.678078,6.696636734,32,fearful,3.4209,-0.5,down,1.041419983,1041.419983,6.948340429,33,antisocial,3.4209,0.5,down,1.609150887,1609.150887,7.383461919,34,trusting,3.4209,0.5,up,0.842427969,842.427969,6.736288162,35,orderly,3.4209,0.5,down,0.792708874,792.708874,6.675456034,36,talented,3.4209,-0.5,up,1.408808947,1408.808947,7.250499908,37,withdrawn,3.4209,0.5,up,0.958498001,958.498001,6.865367477,38,persistent,3.4209,0.5,up,1.42575407,1425.75407,7.262456125,39,thrifty,3.4209,-0.5,up,1.892108917,1892.108917,7.545447315,40,inhibited,3.4210,0.5,up,0.574848175,574.848175,6.354105962,1,enthusiastic,3.8210,-0.5,up,0.743468046,743.468046,6.611325787,2,moody,3.8210,0.5,up,0.724698067,724.698067,6.585755109,3,inventive,3.8210,0.5,up,0.493405104,493.405104,6.201330549,4,tender,3.8210,0.5,up,0.55924511,559.24511,6.326587856,5,trusting,3.8210,-0.5,up,0.642216921,642.216921,6.46492613,6,forgetful,3.8210,0.5,up,1.010924816,1010.924816,6.91862085,7,tidy,3.8210,0.5,up,0.741193056,741.193056,6.608261126,8,persistent,3.8210,-0.5,up,0.959150076,959.150076,6.866047555,9,gullible,3.8210,-0.5,up,0.642423153,642.423153,6.465247203,10,insecure,3.8210,-0.5,up,0.892216921,892.216921,6.793709288,11,inhibited,3.8210,-0.5,down,0.875597954,875.597954,6.774907029,12,withdrawn,3.8210,0.5,up,0.894318819,894.318819,6.796062332,13,neat,3.8210,0.5,up,0.992321014,992.321014,6.900046658,14,artistic,3.8210,-0.5,up,0.776267052,776.267052,6.6544966,15,cynical,3.8210,-0.5,down,0.826956987,826.956987,6.717752683,16,messy,3.8210,0.5,up,0.94282794,942.82794,6.848883806,17,thrifty,3.8210,0.5,up,0.675505877,675.505877,6.515461858,18,confident,3.8210,-0.5,up,0.67541194,675.41194,6.515322786,19,irritable,3.8210,0.5,up,0.675139904,675.139904,6.514919935,20,ambitious,3.8210,-0.5,down,0.825103045,825.103045,6.715508282,21,antisocial,3.8210,0.5,up,0.593598843,593.598843,6.386203743,22,proud,3.8210,-0.5,down,0.743353128,743.353128,6.611171205,23,timid,3.8210,0.5,down,0.925100088,925.100088,6.829901935,24,idealistic,3.8210,-0.5,up,1.042363882,1042.363882,6.949246376,25,childish,3.8210,0.5,down,0.889378071,889.378071,6.790522422,26,disciplined,3.8210,0.5,up,0.575269938,575.269938,6.354839388,27,courageous,3.8210,-0.5,down,0.859935999,859.935999,6.756857967,28,boring,3.8210,-0.5,down,1.010284185,1010.284185,6.917986942,29,tense,3.8210,-0.5,down,0.67595005,675.95005,6.516119183,30,stubborn,3.8210,-0.5,down,0.743194103,743.194103,6.610957253,31,clumsy,3.8210,0.5,up,0.858911991,858.911991,6.755666462,32,brilliant,3.8210,0.5,up,0.725353956,725.353956,6.586659751,33,talented,3.8210,-0.5,down,0.892910004,892.910004,6.794485796,34,anxious,3.8210,-0.5,down,0.742726088,742.726088,6.61032732,35,worrying,3.8210,0.5,down,0.877803087,877.803087,6.777422294,36,wise,3.8210,-0.5,down,0.959407091,959.407091,6.86631548,37,fearful,3.8210,-0.5,down,0.842167139,842.167139,6.735978497,38,impulsive,3.8210,0.5,up,0.608871937,608.871937,6.411607962,39,outgoing,3.8210,0.5,down,0.876199007,876.199007,6.775593242,40,orderly,3.8212,0.5,up,0.75917697,759.17697,6.632234912,1,confident,3.6212,-0.5,down,1.258344889,1258.344889,7.137552556,2,irritable,3.6212,-0.5,down,1.109078884,1109.078884,7.011285116,3,insecure,3.6212,-0.5,up,1.660128832,1660.128832,7.414650488,4,moody,3.6212,-0.5,down,1.709378958,1709.378958,7.443885401,5,cynical,3.6212,-0.5,up,1.476336002,1476.336002,7.297318623,6,timid,3.6212,0.5,up,0.777848959,777.848959,6.656532365,7,neat,3.6212,0.5,up,1.309538126,1309.538126,7.177429778,8,tender,3.6212,-0.5,down,1.692284107,1692.284107,7.433834438,9,impulsive,3.6212,-0.5,up,0.925904036,925.904036,6.830770596,10,childish,3.6212,0.5,up,1.02474308,1024.74308,6.932197206,11,persistent,3.6212,0.5,up,0.677700043,677.700043,6.518704776,12,tidy,3.6212,0.5,down,1.1101439,1110.1439,7.012244926,13,proud,3.6212,0.5,down,1.307646036,1307.646036,7.175983881,14,disciplined,3.6212,0.5,up,0.825507164,825.507164,6.715997942,15,artistic,3.6212,0.5,down,1.376003981,1376.003981,7.226938912,16,orderly,3.6212,-0.5,down,1.392504931,1392.504931,7.238859513,17,stubborn,3.6212,0.5,up,0.759136915,759.136915,6.63218215,18,outgoing,3.6212,0.5,up,0.842518806,842.518806,6.736395984,19,trusting,3.6212,-0.5,up,1.108591795,1108.591795,7.010845836,20,forgetful,3.6212,0.5,up,1.775488853,1775.488853,7.481831074,21,inventive,3.6212,0.5,down,1.442805052,1442.805052,7.274344451,22,thrifty,3.6212,0.5,up,1.324878931,1324.878931,7.189076361,23,ambitious,3.6212,-0.5,down,1.158992052,1158.992052,7.055305986,24,gullible,3.6212,-0.5,up,1.210129023,1210.129023,7.098482263,25,messy,3.6212,-0.5,up,1.723716974,1723.716974,7.45223827,26,worrying,3.6212,-0.5,down,1.325227022,1325.227022,7.189339061,27,antisocial,3.6212,-0.5,NA,NA,NA,NA,28,withdrawn,3.6212,-0.5,down,0.993062973,993.062973,6.900794079,29,boring,3.6212,0.5,up,0.710990906,710.990906,6.566659639,30,wise,3.6212,-0.5,down,0.909888983,909.888983,6.813322595,31,clumsy,3.6212,0.5,up,0.725861073,725.861073,6.587358637,32,talented,3.6212,-0.5,down,0.876345158,876.345158,6.775760029,33,tense,3.6212,0.5,up,1.058744907,1058.744907,6.964839436,34,courageous,3.6212,0.5,up,0.925211906,925.211906,6.830022799,35,idealistic,3.6212,-0.5,down,0.99297595,992.97595,6.900706444,36,fearful,3.6212,-0.5,down,1.375607014,1375.607014,7.226650377,37,inhibited,3.6212,-0.5,down,0.876132965,876.132965,6.775517866,38,anxious,3.6212,0.5,up,0.641827106,641.827106,6.464318962,39,brilliant,3.6212,0.5,up,0.641291142,641.291142,6.463483553,40,enthusiastic,3.6302,-0.5,up,1.06052494,1060.52494,6.966519291,1,timid,3.8302,0.5,up,0.758313894,758.313894,6.631097408,2,persistent,3.8302,0.5,down,2.792920113,2792.920113,7.934842963,3,proud,3.8302,-0.5,up,1.158375978,1158.375978,7.054774284,4,antisocial,3.8302,-0.5,down,1.243200064,1243.200064,7.125444031,5,boring,3.8302,0.5,up,0.661079884,661.079884,6.493874686,6,tidy,3.8302,0.5,NA,NA,NA,NA,7,neat,3.8302,-0.5,down,1.575285912,1575.285912,7.362192066,8,forgetful,3.8302,0.5,down,1.058815002,1058.815002,6.964905639,9,outgoing,3.8302,0.5,up,1.00987792,1009.87792,6.917584731,10,tender,3.8302,-0.5,up,0.742558002,742.558002,6.610100985,11,insecure,3.8302,-0.5,up,1.342019081,1342.019081,7.201930536,12,irritable,3.8302,0.5,down,1.142764807,1142.764807,7.041205874,13,thrifty,3.8302,0.5,up,0.709079027,709.079027,6.563966983,14,artistic,3.8302,-0.5,up,1.1758039,1175.8039,7.069707363,15,cynical,3.8302,0.5,up,1.710877895,1710.877895,7.444761907,16,wise,3.8302,-0.5,up,1.941978931,1941.978931,7.5714628,17,inhibited,3.8302,0.5,down,1.126178026,1126.178026,7.026584901,18,orderly,3.8302,0.5,down,1.075503111,1075.503111,6.980543841,19,confident,3.8302,-0.5,down,1.10916996,1109.16996,7.011367231,20,childish,3.8302,0.5,up,0.792037964,792.037964,6.674609325,21,trusting,3.8302,0.5,up,0.892144918,892.144918,6.793628584,22,brilliant,3.8302,-0.5,up,1.425414085,1425.414085,7.262217636,23,withdrawn,3.8302,-0.5,up,1.025969982,1025.969982,6.933393768,24,worrying,3.8302,-0.5,up,1.110090971,1110.090971,7.012197247,25,messy,3.8302,-0.5,up,0.975685835,975.685835,6.883140644,26,stubborn,3.8302,0.5,up,1.5729599,1572.9599,7.36071441,27,courageous,3.8302,-0.5,up,1.092806101,1092.806101,6.996504072,28,anxious,3.8302,-0.5,up,0.860164165,860.164165,6.757123261,29,tense,3.8302,0.5,NA,NA,NA,NA,30,enthusiastic,3.8302,0.5,up,1.224900961,1224.900961,7.110615272,31,disciplined,3.8302,-0.5,up,1.309990883,1309.990883,7.177775457,32,moody,3.8302,-0.5,down,1.009262085,1009.262085,6.916974734,33,clumsy,3.8302,0.5,up,0.792583942,792.583942,6.675298421,34,talented,3.8302,-0.5,down,1.375552177,1375.552177,7.226610513,35,impulsive,3.8302,0.5,up,0.875169992,875.169992,6.774418144,36,idealistic,3.8302,0.5,up,0.792320013,792.320013,6.674965367,37,ambitious,3.8302,-0.5,down,2.009085178,2009.085178,7.605434762,38,gullible,3.8302,-0.5,up,1.042845011,1042.845011,6.949707845,39,fearful,3.8302,0.5,up,1.075208902,1075.208902,6.980270249,40,inventive,3.8303,-0.5,down,1.076572895,1076.572895,6.981538029,1,cynical,3.8303,-0.5,down,1.492938995,1492.938995,7.308501936,2,fearful,3.8303,-0.5,down,0.792973042,792.973042,6.675789226,3,boring,3.8303,-0.5,up,1.360101938,1360.101938,7.21531493,4,messy,3.8303,0.5,up,0.7608881,760.8881,6.634486304,5,neat,3.8303,-0.5,NA,NA,NA,NA,6,worrying,3.8303,0.5,up,1.109583139,1109.583139,7.011739673,7,thrifty,3.8303,-0.5,down,1.409343004,1409.343004,7.25087892,8,anxious,3.8303,0.5,up,1.008418083,1008.418083,6.916138128,9,ambitious,3.8303,0.5,up,0.594347954,594.347954,6.387464929,10,wise,3.8303,-0.5,down,0.743074894,743.074894,6.610796839,11,clumsy,3.8303,0.5,up,0.725860119,725.860119,6.587357323,12,outgoing,3.8303,0.5,up,0.875780106,875.780106,6.775115039,13,artistic,3.8303,0.5,down,1.092450142,1092.450142,6.996178289,14,trusting,3.8303,0.5,up,0.807809114,807.809114,6.694325786,15,courageous,3.8303,0.5,up,0.757468939,757.468939,6.629982532,16,enthusiastic,3.8303,-0.5,up,1.626744986,1626.744986,7.394336356,17,tense,3.8303,-0.5,down,0.875897884,875.897884,6.775249513,18,gullible,3.8303,-0.5,down,0.992475986,992.475986,6.900202817,19,irritable,3.8303,-0.5,down,1.091761112,1091.761112,6.99554737,20,antisocial,3.8303,-0.5,down,0.859837055,859.837055,6.7567429,21,timid,3.8303,0.5,up,0.75891304,758.91304,6.631887199,22,inventive,3.8303,0.5,up,0.724956989,724.956989,6.586112328,23,disciplined,3.8303,-0.5,down,1.225465059,1225.465059,7.111075691,24,inhibited,3.8303,0.5,up,0.758905888,758.905888,6.631877775,25,confident,3.8303,0.5,up,0.758583069,758.583069,6.63145231,26,persistent,3.8303,-0.5,down,0.690174103,690.174103,6.536943889,27,withdrawn,3.8303,0.5,up,1.12609601,1126.09601,7.026512071,28,talented,3.8303,-0.5,down,1.392122984,1392.122984,7.238585188,29,forgetful,3.8303,-0.5,down,0.843536854,843.536854,6.737603593,30,moody,3.8303,0.5,up,1.192326069,1192.326069,7.083661358,31,orderly,3.8303,-0.5,down,1.392424107,1392.424107,7.238801469,32,stubborn,3.8303,0.5,up,0.825211048,825.211048,6.715639169,33,brilliant,3.8303,0.5,up,0.793403149,793.403149,6.676331477,34,proud,3.8303,0.5,up,0.977759123,977.759123,6.885263344,35,tidy,3.8303,0.5,up,1.275164127,1275.164127,7.150830176,36,idealistic,3.8303,-0.5,down,1.275472879,1275.472879,7.151072274,37,impulsive,3.8303,-0.5,down,1.192492962,1192.492962,7.083801321,38,childish,3.8303,0.5,down,1.143079996,1143.079996,7.041481649,39,tender,3.8303,-0.5,down,0.708907843,708.907843,6.563725536,40,insecure,3.8304,-0.5,up,0.926167965,926.167965,6.831055606,1,worrying,4.6304,0.5,up,0.642183065,642.183065,6.464873411,2,brilliant,4.6304,0.5,up,0.591973066,591.973066,6.383461137,3,confident,4.6304,0.5,up,0.592640877,592.640877,6.384588612,4,outgoing,4.6304,0.5,up,0.511008978,511.008978,6.23638716,5,neat,4.6304,-0.5,down,1.09242487,1092.42487,6.996155156,6,insecure,4.6304,0.5,up,0.710835934,710.835934,6.566441649,7,wise,4.6304,-0.5,down,0.792317867,792.317867,6.674962659,8,fearful,4.6304,0.5,up,0.560127974,560.127974,6.328165283,9,proud,4.6304,-0.5,down,0.827008963,827.008963,6.717815533,10,moody,4.6304,0.5,up,0.691506147,691.506147,6.53887204,11,persistent,4.6304,-0.5,down,0.660226107,660.226107,6.492582363,12,messy,4.6304,0.5,up,0.757594109,757.594109,6.630147766,13,enthusiastic,4.6304,-0.5,down,0.708871841,708.871841,6.56367475,14,forgetful,4.6304,-0.5,down,0.70855093,708.55093,6.563221941,15,irritable,4.6304,-0.5,up,0.825896978,825.896978,6.716470042,16,gullible,4.6304,-0.5,up,0.610330105,610.330105,6.413999967,17,tense,4.6304,-0.5,down,0.809455872,809.455872,6.696362259,18,childish,4.6304,0.5,up,0.542662859,542.662859,6.296488241,19,artistic,4.6304,0.5,up,0.525878191,525.878191,6.26506961,20,talented,4.6304,-0.5,down,0.692718029,692.718029,6.540623032,21,cynical,4.6304,0.5,down,0.674989939,674.989939,6.514697786,22,disciplined,4.6304,-0.5,down,0.742305994,742.305994,6.609761549,23,impulsive,4.6304,-0.5,down,0.826192141,826.192141,6.716827363,24,anxious,4.6304,-0.5,down,0.676637888,676.637888,6.517136252,25,clumsy,4.6304,0.5,up,0.741913795,741.913795,6.609233057,26,idealistic,4.6304,0.5,up,0.639929056,639.929056,6.46135732,27,courageous,4.6304,-0.5,down,0.710259914,710.259914,6.565630979,28,timid,4.6304,0.5,up,0.575949907,575.949907,6.35602069,29,trusting,4.6304,-0.5,down,0.675153017,675.153017,6.514939357,30,antisocial,4.6304,0.5,up,0.643913031,643.913031,6.467563672,31,tidy,4.6304,-0.5,down,0.708977938,708.977938,6.563824409,32,inhibited,4.6304,0.5,up,0.758965015,758.965015,6.631955683,33,ambitious,4.6304,-0.5,down,0.808465958,808.465958,6.695138573,34,withdrawn,4.6304,-0.5,up,1.225973129,1225.973129,7.111490199,35,stubborn,4.6304,0.5,down,0.892827988,892.827988,6.79439394,36,thrifty,4.6304,0.5,down,0.709017038,709.017038,6.563879557,37,inventive,4.6304,0.5,up,0.809925079,809.925079,6.696941748,38,tender,4.6304,-0.5,down,0.643128872,643.128872,6.466345127,39,boring,4.6304,0.5,up,0.725775003,725.775003,6.587240054,40,orderly,4.6305,-0.5,down,0.810469866,810.469866,6.697614161,1,tense,3.4305,-0.5,down,0.658998966,658.998966,6.490721965,2,irritable,3.4305,0.5,up,0.642469883,642.469883,6.465319941,3,trusting,3.4305,0.5,up,0.775605917,775.605917,6.653644552,4,inventive,3.4305,0.5,up,0.625130892,625.130892,6.437961055,5,courageous,3.4305,-0.5,down,0.609841108,609.841108,6.413198445,6,boring,3.4305,-0.5,down,0.859315157,859.315157,6.756135743,7,childish,3.4305,-0.5,down,0.858954906,858.954906,6.755716425,8,inhibited,3.4305,0.5,up,0.607793093,607.793093,6.409834516,9,disciplined,3.4305,0.5,up,0.625545025,625.545025,6.43862331,10,ambitious,3.4305,0.5,up,0.642712831,642.712831,6.465698016,11,orderly,3.4305,0.5,up,0.52448988,524.48988,6.262426133,12,enthusiastic,3.4305,0.5,down,0.693358183,693.358183,6.541546724,13,tender,3.4305,-0.5,up,0.643592834,643.592834,6.467066281,14,moody,3.4305,0.5,up,0.577285051,577.285051,6.358336167,15,neat,3.4305,-0.5,down,0.542528868,542.528868,6.296241297,16,insecure,3.4305,-0.5,down,0.61033082,610.33082,6.414001138,17,messy,3.4305,-0.5,down,0.842612982,842.612982,6.736507756,18,worrying,3.4305,-0.5,down,0.676262856,676.262856,6.516581841,19,anxious,3.4305,-0.5,down,0.6255548,625.5548,6.438638936,20,withdrawn,3.4305,-0.5,down,0.509428978,509.428978,6.233290447,21,clumsy,3.4305,-0.5,up,0.659074068,659.074068,6.490835923,22,forgetful,3.4305,0.5,up,0.509203196,509.203196,6.232847143,23,outgoing,3.4305,0.5,down,0.592948198,592.948198,6.385107039,24,thrifty,3.4305,-0.5,down,0.709673882,709.673882,6.564805543,25,cynical,3.4305,0.5,up,0.492809057,492.809057,6.200121791,26,talented,3.4305,0.5,down,0.723426104,723.426104,6.583998404,27,brilliant,3.4305,-0.5,up,0.592279911,592.279911,6.383979346,28,impulsive,3.4305,-0.5,down,0.52620697,526.20697,6.265694614,29,fearful,3.4305,-0.5,up,0.709229946,709.229946,6.564179798,30,stubborn,3.4305,-0.5,down,0.625316858,625.316858,6.438258494,31,antisocial,3.4305,0.5,up,0.60859108,608.59108,6.411146581,32,idealistic,3.4305,0.5,down,0.675523996,675.523996,6.51548868,33,artistic,3.4305,0.5,up,0.475741148,475.741148,6.1648739,34,confident,3.4305,0.5,up,0.577737093,577.737093,6.359118909,35,wise,3.4305,0.5,down,0.594467878,594.467878,6.387666683,36,tidy,3.4305,-0.5,down,0.776827097,776.827097,6.655217799,37,timid,3.4305,0.5,up,0.526437044,526.437044,6.26613175,38,proud,3.4305,0.5,up,0.758597136,758.597136,6.631470854,39,persistent,3.4305,-0.5,down,0.658934832,658.934832,6.49062464,40,gullible,3.4306,0.5,up,0.925102949,925.102949,6.829905028,1,courageous,4306,-0.5,down,0.925594091,925.594091,6.830435792,2,childish,4306,0.5,up,1.126148939,1126.148939,7.026559073,3,thrifty,4306,-0.5,down,0.760039091,760.039091,6.633369867,4,boring,4306,0.5,up,1.026129007,1026.129007,6.933548756,5,orderly,4306,-0.5,down,0.84313798,843.13798,6.737130622,6,clumsy,4306,0.5,up,0.858340979,858.340979,6.755001432,7,idealistic,4306,0.5,up,1.392830133,1392.830133,7.239093023,8,tender,4306,-0.5,down,0.86036706,860.36706,6.757359112,9,moody,4306,-0.5,down,0.892071962,892.071962,6.793546804,10,forgetful,4306,-0.5,down,0.842098951,842.098951,6.735897526,11,cynical,4306,-0.5,down,1.05903697,1059.03697,6.965115255,12,withdrawn,4306,0.5,up,0.776058912,776.058912,6.654228435,13,trusting,4306,-0.5,up,1.358732939,1358.732939,7.214307882,14,stubborn,4306,0.5,up,0.875502825,875.502825,6.774798378,15,confident,4306,0.5,up,1.425448895,1425.448895,7.262242057,16,brilliant,4306,-0.5,down,0.826041937,826.041937,6.716645543,17,insecure,4306,-0.5,down,0.793518066,793.518066,6.676476307,18,timid,4306,0.5,up,0.859223127,859.223127,6.75602864,19,outgoing,4306,-0.5,down,0.758180857,758.180857,6.630921955,20,antisocial,4306,0.5,up,0.791656017,791.656017,6.674126975,21,disciplined,4306,-0.5,down,1.025365114,1025.365114,6.932804037,22,inhibited,4306,-0.5,down,0.859361887,859.361887,6.756190122,23,worrying,4306,0.5,up,0.860286951,860.286951,6.757265998,24,proud,4306,0.5,up,0.975487947,975.487947,6.882937804,25,inventive,4306,-0.5,down,1.007307053,1007.307053,6.915035765,26,anxious,4306,0.5,up,0.911255836,911.255836,6.814823688,27,neat,4306,-0.5,down,0.84285903,842.85903,6.73679972,28,fearful,4306,-0.5,down,1.092355013,1092.355013,6.996091207,29,impulsive,4306,0.5,up,0.892500877,892.500877,6.794027496,30,artistic,4306,-0.5,down,0.975978136,975.978136,6.883440185,31,gullible,4306,0.5,up,0.858906031,858.906031,6.755659523,32,ambitious,4306,0.5,up,0.740658045,740.658045,6.607539041,33,enthusiastic,4306,0.5,up,0.775451899,775.451899,6.653445955,34,persistent,4306,0.5,up,0.792526007,792.526007,6.675225322,35,talented,4306,-0.5,down,0.710165024,710.165024,6.565497371,36,tense,4306,-0.5,down,0.826947212,826.947212,6.717740862,37,messy,4306,0.5,up,0.74454999,744.54999,6.612779996,38,tidy,4306,0.5,up,1.026695013,1026.695013,6.934100197,39,wise,4306,-0.5,down,0.85869503,858.69503,6.75541383,40,irritable,4219,-0.5,down,1.308437824,1308.437824,7.176589204,1,antisocial,3.8219,-0.5,up,0.926563025,926.563025,6.831482068,2,clumsy,3.8219,-0.5,up,1.108721018,1108.721018,7.010962394,3,worrying,3.8219,-0.5,down,1.292112112,1292.112112,7.164033455,4,inhibited,3.8219,0.5,up,0.942203045,942.203045,6.848220798,5,brilliant,3.8219,0.5,down,1.108443975,1108.443975,7.010712487,6,idealistic,3.8219,0.5,down,0.792494059,792.494059,6.675185009,7,artistic,3.8219,-0.5,down,1.093170881,1093.170881,6.996837817,8,boring,3.8219,-0.5,down,0.926575899,926.575899,6.831495962,9,messy,3.8219,-0.5,up,0.924857855,924.857855,6.829640055,10,irritable,3.8219,0.5,up,0.742896795,742.896795,6.610557132,11,orderly,3.8219,-0.5,up,0.826296091,826.296091,6.716953173,12,cynical,3.8219,0.5,up,0.69451499,694.51499,6.543213746,13,neat,3.8219,0.5,up,1.641513824,1641.513824,7.403374158,14,disciplined,3.8219,-0.5,up,0.792322159,792.322159,6.674968076,15,stubborn,3.8219,0.5,down,0.960911989,960.911989,6.867882822,16,wise,3.8219,-0.5,up,0.726224184,726.224184,6.587858761,17,anxious,3.8219,0.5,up,0.744406939,744.406939,6.612587846,18,tidy,3.8219,-0.5,down,0.89198184,891.98184,6.793445774,19,gullible,3.8219,0.5,up,0.741935015,741.935015,6.609261658,20,persistent,3.8219,0.5,down,1.041378021,1041.378021,6.948300135,21,courageous,3.8219,0.5,down,1.359728098,1359.728098,7.215040031,22,tender,3.8219,-0.5,down,1.425330162,1425.330162,7.262158758,23,withdrawn,3.8219,-0.5,down,1.510212898,1510.212898,7.320005912,24,timid,3.8219,-0.5,down,0.959307194,959.307194,6.866211351,25,childish,3.8219,0.5,up,2.125329018,2125.329018,7.661681901,26,inventive,3.8219,0.5,up,1.273655891,1273.655891,7.149646698,27,talented,3.8219,0.5,up,0.843729019,843.729019,6.737831376,28,proud,3.8219,0.5,up,0.8423388,842.3388,6.736182309,29,confident,3.8219,-0.5,down,0.908948898,908.948898,6.812288875,30,forgetful,3.8219,0.5,up,0.857723951,857.723951,6.754282312,31,enthusiastic,3.8219,0.5,up,0.692232847,692.232847,6.539922383,32,ambitious,3.8219,0.5,up,0.82554698,825.54698,6.716046173,33,trusting,3.8219,0.5,down,0.892872095,892.872095,6.79444334,34,thrifty,3.8219,-0.5,up,0.760176182,760.176182,6.633550225,35,moody,3.8219,-0.5,up,0.775439024,775.439024,6.653429352,36,impulsive,3.8219,0.5,up,0.825372934,825.372934,6.715835325,37,outgoing,3.8219,-0.5,down,1.342342138,1342.342138,7.202171231,38,insecure,3.8219,-0.5,up,0.727036953,727.036953,6.588977306,39,tense,3.8219,-0.5,down,1.442433119,1442.433119,7.274086633,40,fearful,3.8220,0.5,up,0.593844891,593.844891,6.386618159,1,proud,3.8220,0.5,up,0.742787838,742.787838,6.610410456,2,thrifty,3.8220,-0.5,down,0.741426945,741.426945,6.608576633,3,antisocial,3.8220,0.5,up,0.908491135,908.491135,6.81178513,4,courageous,3.8220,-0.5,down,1.375585079,1375.585079,7.226634432,5,inhibited,3.8220,-0.5,up,0.97617197,976.17197,6.88363877,6,tense,3.8220,0.5,up,0.641052961,641.052961,6.463112076,7,enthusiastic,3.8220,-0.5,up,0.95882988,958.82988,6.865713666,8,irritable,3.8220,-0.5,down,0.893037796,893.037796,6.794628905,9,clumsy,3.8220,-0.5,down,1.242115021,1242.115021,7.124570868,10,impulsive,3.8220,0.5,up,0.759845018,759.845018,6.633114489,11,tender,3.8220,0.5,up,0.72636199,726.36199,6.588048499,12,orderly,3.8220,0.5,up,0.692070007,692.070007,6.539687117,13,idealistic,3.8220,0.5,up,0.54419589,544.19589,6.299309274,14,wise,3.8220,0.5,up,0.874332905,874.332905,6.773461201,15,disciplined,3.8220,-0.5,down,1.009105921,1009.105921,6.916819991,16,insecure,3.8220,0.5,up,0.742572069,742.572069,6.610119929,17,trusting,3.8220,0.5,up,0.725991964,725.991964,6.587538946,18,artistic,3.8220,-0.5,down,0.909868002,909.868002,6.813299536,19,boring,3.8220,-0.5,up,1.310304165,1310.304165,7.178014576,20,moody,3.8220,-0.5,down,0.958702087,958.702087,6.865580377,21,stubborn,3.8220,0.5,up,0.758481979,758.481979,6.63131904,22,persistent,3.8220,-0.5,down,0.859536886,859.536886,6.75639374,23,fearful,3.8220,0.5,up,1.041632175,1041.632175,6.948544161,24,ambitious,3.8220,-0.5,down,0.87591815,875.91815,6.77527265,25,gullible,3.8220,0.5,down,1.211111069,1211.111069,7.099293456,26,tidy,3.8220,0.5,up,0.840034962,840.034962,6.733443512,27,brilliant,3.8220,-0.5,down,0.776935101,776.935101,6.655356822,28,messy,3.8220,-0.5,down,1.260088921,1260.088921,7.13893757,29,timid,3.8220,0.5,up,0.744418144,744.418144,6.612602898,30,neat,3.8220,0.5,up,0.708742142,708.742142,6.563491768,31,talented,3.8220,0.5,up,0.576062918,576.062918,6.356216887,32,outgoing,3.8220,0.5,up,1.14221406,1142.21406,7.040723816,33,inventive,3.8220,-0.5,down,0.958406925,958.406925,6.865272453,34,withdrawn,3.8220,-0.5,down,1.12519908,1125.19908,7.025715259,35,forgetful,3.8220,-0.5,down,1.242444992,1242.444992,7.124836485,36,childish,3.8220,0.5,up,0.759021997,759.021997,6.632030759,37,confident,3.8220,-0.5,down,0.842943192,842.943192,6.736899568,38,cynical,3.8220,-0.5,down,0.72636199,726.36199,6.588048499,39,anxious,3.8220,-0.5,down,0.858913183,858.913183,6.755667849,40,worrying,3.8221,0.5,up,1.375041008,1375.041008,7.226238834,1,courageous,3221,-0.5,up,1.125902891,1125.902891,7.026340563,2,anxious,3221,-0.5,up,1.591756105,1591.756105,7.372593154,3,antisocial,3221,0.5,up,1.14253211,1142.53211,7.041002227,4,artistic,3221,-0.5,up,1.142591,1142.591,7.041053769,5,worrying,3221,0.5,down,1.24229002,1242.29002,7.124711746,6,confident,3221,-0.5,up,1.326884985,1326.884985,7.190589358,7,tense,3221,0.5,up,0.97460413,974.60413,6.882031368,8,disciplined,3221,0.5,down,1.473688841,1473.688841,7.295523952,9,enthusiastic,3221,-0.5,down,1.093511105,1093.511105,6.997148996,10,timid,3221,-0.5,up,1.809293985,1809.293985,7.500691985,11,insecure,3221,-0.5,down,1.160146952,1160.146952,7.056301959,12,messy,3221,0.5,up,1.025079012,1025.079012,6.932524973,13,persistent,3221,-0.5,up,2.158321142,2158.321142,7.677085949,14,inhibited,3221,-0.5,down,1.392225027,1392.225027,7.238658485,15,irritable,3221,0.5,down,1.12577486,1125.77486,7.026226842,16,outgoing,3221,-0.5,up,1.159566879,1159.566879,7.055801834,17,fearful,3221,-0.5,up,1.409457922,1409.457922,7.250960457,18,cynical,3221,-0.5,down,1.493393898,1493.393898,7.308806593,19,moody,3221,-0.5,up,1.442912102,1442.912102,7.274418644,20,boring,3221,-0.5,down,1.39240098,1392.40098,7.23878486,21,childish,3221,0.5,down,1.258929014,1258.929014,7.13801665,22,inventive,3221,0.5,down,1.442677021,1442.677021,7.274255709,23,thrifty,3221,0.5,up,1.926578999,1926.578999,7.56350117,24,tender,3221,0.5,up,0.910909891,910.909891,6.81444398,25,tidy,3221,0.5,up,1.422923088,1422.923088,7.260468547,26,idealistic,3221,0.5,down,1.242238998,1242.238998,7.124670674,27,brilliant,3221,-0.5,up,1.658904076,1658.904076,7.413912468,28,withdrawn,3221,0.5,up,1.011132002,1011.132002,6.918825776,29,neat,3221,-0.5,up,1.275840998,1275.840998,7.151360846,30,stubborn,3221,0.5,up,0.842937946,842.937946,6.736893344,31,orderly,3221,0.5,up,0.975550175,975.550175,6.883001594,32,ambitious,3221,0.5,down,1.642147064,1642.147064,7.40375985,33,talented,3221,-0.5,down,1.525475025,1525.475025,7.330061132,34,forgetful,3221,0.5,up,1.210244179,1210.244179,7.098577419,35,proud,3221,0.5,up,1.025934935,1025.934935,6.933359608,36,trusting,3221,-0.5,up,1.275892973,1275.892973,7.151401583,37,gullible,3221,-0.5,up,1.44313693,1443.13693,7.274574447,38,clumsy,3221,-0.5,up,1.658541918,1658.541918,7.413694133,39,impulsive,3221,0.5,up,0.910953999,910.953999,6.814492401,40,wise,3222,-0.5,down,1.025910139,1025.910139,6.933335438,1,withdrawn,3.6222,0.5,up,0.792237043,792.237043,6.674860644,2,confident,3.6222,0.5,up,0.858887196,858.887196,6.755637593,3,trusting,3.6222,-0.5,down,1.209042072,1209.042072,7.097583649,4,gullible,3.6222,0.5,up,1.17550993,1175.50993,7.069457315,5,inventive,3.6222,0.5,down,1.243238926,1243.238926,7.12547529,6,tender,3.6222,-0.5,down,1.343000889,1343.000889,7.202661858,7,fearful,3.6222,0.5,down,1.225975037,1225.975037,7.111491755,8,artistic,3.6222,-0.5,down,1.475699186,1475.699186,7.296887181,9,cynical,3.6222,0.5,up,0.724872112,724.872112,6.585995242,10,courageous,3.6222,-0.5,down,1.475407839,1475.407839,7.296689732,11,inhibited,3.6222,-0.5,up,1.092560053,1092.560053,6.996278894,12,worrying,3.6222,-0.5,up,1.776128054,1776.128054,7.482191023,13,tense,3.6222,-0.5,up,1.37562108,1375.62108,7.226660603,14,stubborn,3.6222,0.5,up,0.742214918,742.214918,6.609638848,15,brilliant,3.6222,0.5,down,1.209107876,1209.107876,7.097638074,16,outgoing,3.6222,0.5,up,0.658806801,658.806801,6.490430322,17,ambitious,3.6222,-0.5,up,0.960172892,960.172892,6.867113364,18,moody,3.6222,0.5,up,0.660830021,660.830021,6.493496652,19,neat,3.6222,0.5,up,0.644026995,644.026995,6.467740643,20,wise,3.6222,-0.5,down,1.209303141,1209.303141,7.097799556,21,childish,3.6222,0.5,up,0.858337164,858.337164,6.754996987,22,disciplined,3.6222,0.5,up,0.810975075,810.975075,6.69823732,23,tidy,3.6222,-0.5,up,1.441823006,1441.823006,7.273663568,24,antisocial,3.6222,0.5,up,0.959349155,959.349155,6.866255091,25,talented,3.6222,0.5,up,0.705557823,705.557823,6.558988728,26,enthusiastic,3.6222,0.5,up,0.842880964,842.880964,6.736825743,27,orderly,3.6222,-0.5,down,0.89362812,893.62812,6.795289715,28,messy,3.6222,-0.5,up,1.491522074,1491.522074,7.307552404,29,forgetful,3.6222,-0.5,down,1.343245983,1343.245983,7.202844339,30,boring,3.6222,0.5,up,0.991967916,991.967916,6.899690764,31,persistent,3.6222,-0.5,down,1.358577013,1358.577013,7.214193117,32,irritable,3.6222,-0.5,up,1.274959087,1274.959087,7.150669368,33,impulsive,3.6222,-0.5,down,0.860112906,860.112906,6.757063667,34,timid,3.6222,-0.5,up,1.709267139,1709.267139,7.443819984,35,insecure,3.6222,0.5,up,1.191797972,1191.797972,7.083218347,36,idealistic,3.6222,-0.5,up,0.793051958,793.051958,6.67588874,37,anxious,3.6222,-0.5,down,1.19324708,1193.24708,7.084433509,38,clumsy,3.6222,0.5,up,0.659780979,659.780979,6.49190793,39,proud,3.6222,0.5,down,1.109615803,1109.615803,7.011769111,40,thrifty,3.6223,-0.5,down,0.959180832,959.180832,6.86607962,1,withdrawn,3.8223,-0.5,down,0.892184019,892.184019,6.793672411,2,cynical,3.8223,-0.5,down,1.108469963,1108.469963,7.010735932,3,inhibited,3.8223,-0.5,down,1.060216904,1060.216904,6.966228793,4,tense,3.8223,-0.5,down,1.258837938,1258.837938,7.137944303,5,impulsive,3.8223,0.5,up,0.891479015,891.479015,6.792881898,6,disciplined,3.8223,-0.5,down,0.909188986,909.188986,6.812552978,7,gullible,3.8223,-0.5,down,1.275972128,1275.972128,7.15146362,8,timid,3.8223,0.5,up,0.742314816,742.314816,6.609773434,9,trusting,3.8223,0.5,up,0.774888992,774.888992,6.652719783,10,courageous,3.8223,-0.5,down,0.792320967,792.320967,6.674966571,11,fearful,3.8223,0.5,up,0.825495958,825.495958,6.715984367,12,inventive,3.8223,0.5,up,0.609388828,609.388828,6.412456534,13,artistic,3.8223,-0.5,down,0.793740988,793.740988,6.676757196,14,moody,3.8223,0.5,down,0.9606359,960.6359,6.867595461,15,tidy,3.8223,0.5,up,0.676153898,676.153898,6.51642071,16,talented,3.8223,-0.5,down,1.192370892,1192.370892,7.08369895,17,stubborn,3.8223,-0.5,down,0.776976824,776.976824,6.655410522,18,messy,3.8223,0.5,up,0.758981943,758.981943,6.631977987,19,ambitious,3.8223,0.5,up,0.675781012,675.781012,6.515869077,20,brilliant,3.8223,-0.5,down,0.842428923,842.428923,6.736289294,21,anxious,3.8223,0.5,up,0.691028118,691.028118,6.538180515,22,enthusiastic,3.8223,0.5,up,0.77518487,775.18487,6.653101543,23,persistent,3.8223,0.5,up,0.741786003,741.786003,6.609060796,24,idealistic,3.8223,0.5,up,0.727617979,727.617979,6.589776156,25,wise,3.8223,0.5,up,0.709259987,709.259987,6.564222155,26,outgoing,3.8223,0.5,up,0.825477123,825.477123,6.71596155,27,neat,3.8223,-0.5,up,0.842504025,842.504025,6.73637844,28,worrying,3.8223,-0.5,down,0.791889906,791.889906,6.674422375,29,antisocial,3.8223,-0.5,down,0.960078001,960.078001,6.867014532,30,boring,3.8223,-0.5,up,0.742112875,742.112875,6.609501354,31,forgetful,3.8223,-0.5,down,0.892579079,892.579079,6.794115114,32,insecure,3.8223,0.5,up,0.642270803,642.270803,6.465010026,33,confident,3.8223,0.5,up,0.676682949,676.682949,6.517202846,34,proud,3.8223,-0.5,down,0.825799942,825.799942,6.716352543,35,childish,3.8223,-0.5,down,0.742174149,742.174149,6.609583918,36,irritable,3.8223,0.5,up,0.842890024,842.890024,6.736836492,37,orderly,3.8223,0.5,down,0.842983961,842.983961,6.736947932,38,thrifty,3.8223,-0.5,down,0.859973907,859.973907,6.756902048,39,clumsy,3.8223,0.5,up,0.859266043,859.266043,6.756078586,40,tender,3.8224,-0.5,down,0.709767818,709.767818,6.5649379,1,fearful,4.6224,-0.5,up,0.692532063,692.532063,6.540354537,2,childish,4.6224,0.5,down,0.692610979,692.610979,6.540468484,3,orderly,4.6224,0.5,up,0.675531149,675.531149,6.515499269,4,inventive,4.6224,0.5,up,0.57772398,577.72398,6.359096211,5,wise,4.6224,0.5,up,0.642108917,642.108917,6.464757942,6,confident,4.6224,0.5,down,0.575989962,575.989962,6.356090233,7,artistic,4.6224,0.5,down,0.526256084,526.256084,6.265787946,8,thrifty,4.6224,0.5,up,0.594089985,594.089985,6.387030798,9,tidy,4.6224,0.5,up,0.758076906,758.076906,6.63078484,10,courageous,4.6224,-0.5,up,0.810267925,810.267925,6.697364965,11,moody,4.6224,-0.5,up,0.726358175,726.358175,6.588043247,12,anxious,4.6224,0.5,down,1.20854497,1208.54497,7.097172411,13,idealistic,4.6224,-0.5,up,0.843548059,843.548059,6.737616876,14,tense,4.6224,-0.5,down,1.041790962,1041.790962,6.94869659,15,irritable,4.6224,-0.5,down,1.108974218,1108.974218,7.011190739,16,forgetful,4.6224,-0.5,up,0.709623098,709.623098,6.564733981,17,cynical,4.6224,0.5,up,0.774891138,774.891138,6.652722552,18,disciplined,4.6224,-0.5,down,0.709807158,709.807158,6.564993325,19,boring,4.6224,-0.5,down,0.59322381,593.22381,6.385571748,20,clumsy,4.6224,-0.5,down,0.925483942,925.483942,6.830316781,21,stubborn,4.6224,-0.5,up,0.792305946,792.305946,6.674947613,22,withdrawn,4.6224,-0.5,down,0.875960827,875.960827,6.775321372,23,insecure,4.6224,-0.5,down,0.659169912,659.169912,6.490981334,24,gullible,4.6224,0.5,up,0.708854914,708.854914,6.563650871,25,ambitious,4.6224,0.5,down,0.626505136,626.505136,6.440156972,26,tender,4.6224,0.5,up,0.724874973,724.874973,6.585999189,27,proud,4.6224,0.5,up,0.641152859,641.152859,6.463267898,28,enthusiastic,4.6224,0.5,up,0.776046991,776.046991,6.654213074,29,trusting,4.6224,-0.5,down,0.708038092,708.038092,6.562497895,30,antisocial,4.6224,-0.5,down,0.67703414,677.03414,6.5177217,31,messy,4.6224,0.5,up,0.692505836,692.505836,6.540316665,32,outgoing,4.6224,0.5,up,0.724755049,724.755049,6.585833734,33,persistent,4.6224,-0.5,down,0.725804806,725.804806,6.587281116,34,worrying,4.6224,-0.5,up,0.659009933,659.009933,6.490738607,35,impulsive,4.6224,-0.5,up,0.99229598,992.29598,6.90002143,36,inhibited,4.6224,-0.5,up,0.910303831,910.303831,6.813778424,37,timid,4.6224,0.5,up,0.844370842,844.370842,6.738591784,38,neat,4.6224,0.5,down,1.092612028,1092.612028,6.996326465,39,talented,4.6224,0.5,down,0.925112963,925.112963,6.829915852,40,brilliant,4.6226,-0.5,down,0.993910074,993.910074,6.901646734,1,timid,3.8226,-0.5,up,1.058816195,1058.816195,6.964906766,2,irritable,3.8226,-0.5,up,0.993286133,993.286133,6.901018773,3,moody,3.8226,0.5,down,1.426046848,1426.046848,7.262661453,4,thrifty,3.8226,-0.5,up,1.126826048,1126.826048,7.027160153,5,messy,3.8226,0.5,up,0.992300987,992.300987,6.900026476,6,ambitious,3.8226,0.5,up,0.874475956,874.475956,6.7736248,7,enthusiastic,3.8226,-0.5,up,1.426367044,1426.367044,7.262885962,8,clumsy,3.8226,-0.5,down,1.291549921,1291.549921,7.163598265,9,gullible,3.8226,0.5,up,0.809196949,809.196949,6.696042335,10,talented,3.8226,-0.5,down,1.242518902,1242.518902,7.124895971,11,insecure,3.8226,0.5,down,1.241552114,1241.552114,7.124117581,12,disciplined,3.8226,-0.5,up,0.89248991,892.48991,6.794015208,13,worrying,3.8226,-0.5,down,0.859598875,859.598875,6.756465856,14,cynical,3.8226,0.5,up,0.893738031,893.738031,6.795412702,15,tidy,3.8226,-0.5,down,1.875415802,1875.415802,7.536585675,16,inhibited,3.8226,0.5,down,1.342679977,1342.679977,7.202422878,17,orderly,3.8226,0.5,down,1.060986996,1060.986996,6.966954882,18,neat,3.8226,-0.5,up,1.008727074,1008.727074,6.916444492,19,impulsive,3.8226,0.5,up,0.759286165,759.286165,6.632378735,20,artistic,3.8226,-0.5,up,1.943063974,1943.063974,7.572021374,21,tense,3.8226,0.5,down,1.209913015,1209.913015,7.098303748,22,tender,3.8226,-0.5,up,1.359633923,1359.633923,7.214970768,23,fearful,3.8226,0.5,down,2.225824118,2225.824118,7.707882516,24,trusting,3.8226,-0.5,up,1.008903027,1008.903027,6.916618908,25,withdrawn,3.8226,-0.5,up,1.159100056,1159.100056,7.055399169,26,stubborn,3.8226,-0.5,up,1.539382935,1539.382935,7.339136924,27,antisocial,3.8226,0.5,up,1.108776093,1108.776093,7.011012067,28,inventive,3.8226,-0.5,down,0.942483187,942.483187,6.84851808,29,forgetful,3.8226,0.5,up,1.060367107,1060.367107,6.966370455,30,proud,3.8226,0.5,up,0.925653934,925.653934,6.830500443,31,brilliant,3.8226,0.5,down,0.84435606,844.35606,6.738574278,32,wise,3.8226,-0.5,down,1.12627697,1126.27697,7.026672755,33,anxious,3.8226,-0.5,down,1.142071009,1142.071009,7.040598568,34,childish,3.8226,0.5,up,1.542179108,1542.179108,7.3409517,35,confident,3.8226,-0.5,down,1.126547813,1126.547813,7.026913203,36,boring,3.8226,0.5,down,0.84177804,841.77804,6.735516369,37,idealistic,3.8226,0.5,up,0.742497921,742.497921,6.610020071,38,outgoing,3.8226,0.5,down,0.991961002,991.961002,6.899683794,39,persistent,3.8226,0.5,up,0.758143902,758.143902,6.630873212,40,courageous,3.8228,-0.5,down,1.060073853,1060.073853,6.966093857,1,boring,3228,-0.5,up,1.057777882,1057.777882,6.963925649,2,antisocial,3228,0.5,up,0.743665934,743.665934,6.611591921,3,proud,3228,0.5,up,0.642629862,642.629862,6.465568916,4,talented,3228,-0.5,up,1.126302958,1126.302958,7.026695829,5,cynical,3228,-0.5,up,0.775750875,775.750875,6.653831431,6,stubborn,3228,0.5,down,0.925603867,925.603867,6.830446354,7,inventive,3228,0.5,down,0.843919992,843.919992,6.738057694,8,wise,3228,-0.5,up,1.292154074,1292.154074,7.16406593,9,withdrawn,3228,0.5,down,1.576407194,1576.407194,7.362903609,10,orderly,3228,-0.5,up,0.74335885,743.35885,6.611178903,11,messy,3228,0.5,down,0.758852005,758.852005,6.631806772,12,brilliant,3228,-0.5,up,0.80923605,809.23605,6.696090654,13,childish,3228,0.5,down,1.340662003,1340.662003,7.200918803,14,enthusiastic,3228,-0.5,up,0.94224,942.24,6.848260019,15,irritable,3228,-0.5,down,1.96007514,1960.07514,7.580738088,16,tense,3228,-0.5,up,0.958921194,958.921194,6.865808896,17,impulsive,3228,0.5,up,0.72518301,725.18301,6.586424051,18,idealistic,3228,0.5,up,0.792804003,792.804003,6.675576032,19,thrifty,3228,-0.5,down,0.991805077,991.805077,6.899526593,20,forgetful,3228,0.5,up,0.792587042,792.587042,6.675302332,21,trusting,3228,0.5,down,0.809201956,809.201956,6.696048522,22,outgoing,3228,-0.5,up,0.676854134,676.854134,6.51745579,23,timid,3228,-0.5,down,0.910140991,910.140991,6.813599523,24,moody,3228,-0.5,up,0.775846004,775.846004,6.653954052,25,worrying,3228,-0.5,up,0.557577848,557.577848,6.323602131,26,anxious,3228,0.5,down,0.861071825,861.071825,6.758177921,27,tidy,3228,0.5,up,1.391994953,1391.994953,7.238493215,28,persistent,3228,-0.5,down,0.876182079,876.182079,6.775573922,29,fearful,3228,-0.5,down,0.892120838,892.120838,6.793601592,30,inhibited,3228,0.5,down,0.859374046,859.374046,6.756204271,31,tender,3228,0.5,down,0.67591095,675.91095,6.516061337,32,artistic,3228,0.5,up,0.708457947,708.457947,6.563090702,33,confident,3228,-0.5,down,0.825851917,825.851917,6.71641548,34,clumsy,3228,0.5,up,1.525019884,1525.019884,7.329762728,35,courageous,3228,0.5,down,0.942216873,942.216873,6.848235474,36,ambitious,3228,-0.5,up,1.075878143,1075.878143,6.980892484,37,gullible,3228,0.5,down,0.827666998,827.666998,6.718610897,38,neat,3228,0.5,down,1.024458885,1024.458885,6.931919835,39,disciplined,3228,-0.5,up,1.042587996,1042.587996,6.949461359,40,insecure,3229,0.5,down,0.776806116,776.806116,6.65519079,1,tender,3.4229,0.5,down,1.040948153,1040.948153,6.947887262,2,enthusiastic,3.4229,-0.5,down,0.775645971,775.645971,6.653696193,3,childish,3.4229,0.5,down,0.908301115,908.301115,6.811575948,4,courageous,3.4229,0.5,up,0.975990057,975.990057,6.883452399,5,trusting,3.4229,-0.5,down,0.908771038,908.771038,6.812093179,6,inhibited,3.4229,0.5,up,1.042553902,1042.553902,6.949428657,7,talented,3.4229,0.5,up,0.891455889,891.455889,6.792855957,8,idealistic,3.4229,0.5,down,0.844359159,844.359159,6.738577948,9,neat,3.4229,-0.5,down,0.975551844,975.551844,6.883003305,10,forgetful,3.4229,-0.5,down,0.759909153,759.909153,6.633198891,11,clumsy,3.4229,0.5,down,0.810878992,810.878992,6.698118835,12,wise,3.4229,0.5,up,0.926220179,926.220179,6.831111981,13,orderly,3.4229,-0.5,up,0.925299883,925.299883,6.830117883,14,withdrawn,3.4229,-0.5,down,0.793493986,793.493986,6.676445961,15,messy,3.4229,0.5,up,0.877600908,877.600908,6.777191944,16,tidy,3.4229,-0.5,down,1.009191036,1009.191036,6.916904334,17,boring,3.4229,-0.5,up,1.060091019,1060.091019,6.96611005,18,timid,3.4229,-0.5,up,0.875928164,875.928164,6.775284083,19,stubborn,3.4229,-0.5,down,0.809093952,809.093952,6.695915044,20,fearful,3.4229,-0.5,up,0.825256824,825.256824,6.71569464,21,antisocial,3.4229,0.5,up,0.893545151,893.545151,6.795196866,22,proud,3.4229,0.5,up,0.775161982,775.161982,6.653072017,23,persistent,3.4229,0.5,down,1.159305096,1159.305096,7.055576049,24,outgoing,3.4229,0.5,up,1.009418964,1009.418964,6.917130161,25,thrifty,3.4229,-0.5,up,0.990032196,990.032196,6.897737464,26,insecure,3.4229,-0.5,up,0.992939949,992.939949,6.900670188,27,anxious,3.4229,-0.5,up,0.87558198,875.58198,6.774888785,28,irritable,3.4229,-0.5,up,0.893537045,893.537045,6.795187794,29,tense,3.4229,0.5,up,0.99219203,992.19203,6.899916667,30,brilliant,3.4229,-0.5,down,1.009207964,1009.207964,6.916921108,31,worrying,3.4229,-0.5,down,0.792192936,792.192936,6.674804968,32,impulsive,3.4229,0.5,down,0.924510002,924.510002,6.82926387,33,disciplined,3.4229,0.5,up,0.992449999,992.449999,6.900176632,34,inventive,3.4229,-0.5,up,0.826199055,826.199055,6.716835731,35,cynical,3.4229,0.5,up,0.809249878,809.249878,6.696107742,36,artistic,3.4229,-0.5,down,0.943586111,943.586111,6.849687628,37,moody,3.4229,0.5,down,0.958862066,958.862066,6.865747233,38,confident,3.4229,-0.5,down,0.875643969,875.643969,6.77495958,39,gullible,3.4229,0.5,down,0.892256022,892.256022,6.793753112,40,ambitious,3.4232,-0.5,down,1.508989096,1508.989096,7.319195233,1,inhibited,3.6232,0.5,up,0.759114027,759.114027,6.632151999,2,talented,3.6232,-0.5,up,1.741446018,1741.446018,7.462471092,3,antisocial,3.6232,-0.5,down,1.675323963,1675.323963,7.423761836,4,irritable,3.6232,0.5,up,1.274242163,1274.242163,7.150106899,5,enthusiastic,3.6232,-0.5,down,1.458811998,1458.811998,7.285377683,6,forgetful,3.6232,-0.5,down,1.425678015,1425.678015,7.26240278,7,cynical,3.6232,0.5,up,1.493180037,1493.180037,7.308663378,8,tender,3.6232,-0.5,down,1.908831835,1908.831835,7.554246729,9,withdrawn,3.6232,-0.5,down,1.425750971,1425.750971,7.262453951,10,insecure,3.6232,0.5,up,0.858777046,858.777046,6.755509338,11,brilliant,3.6232,0.5,up,0.677011967,677.011967,6.517688949,12,proud,3.6232,-0.5,down,0.975410938,975.410938,6.882858857,13,childish,3.6232,0.5,up,1.075824976,1075.824976,6.980843066,14,outgoing,3.6232,0.5,up,1.025861979,1025.861979,6.933288493,15,artistic,3.6232,-0.5,down,0.875846148,875.846148,6.775190445,16,clumsy,3.6232,0.5,up,1.141903162,1141.903162,7.04045159,17,idealistic,3.6232,-0.5,down,1.092968941,1092.968941,6.996653071,18,fearful,3.6232,-0.5,down,0.876561165,876.561165,6.776006485,19,messy,3.6232,0.5,up,1.059391975,1059.391975,6.965450414,20,trusting,3.6232,-0.5,down,0.943154812,943.154812,6.849230439,21,boring,3.6232,0.5,up,0.958707094,958.707094,6.8655856,22,courageous,3.6232,-0.5,down,0.90921092,909.21092,6.812577102,23,stubborn,3.6232,-0.5,down,0.910171986,910.171986,6.813633577,24,timid,3.6232,-0.5,down,0.974759817,974.759817,6.882191099,25,tense,3.6232,0.5,up,1.691539049,1691.539049,7.433394073,26,disciplined,3.6232,-0.5,down,1.709080935,1709.080935,7.44371104,27,gullible,3.6232,0.5,up,0.742202044,742.202044,6.609621503,28,confident,3.6232,0.5,up,1.125209808,1125.209808,7.025724793,29,persistent,3.6232,0.5,up,0.661095142,661.095142,6.493897766,30,wise,3.6232,0.5,up,0.758932114,758.932114,6.631912332,31,ambitious,3.6232,-0.5,down,1.025462866,1025.462866,6.932899366,32,worrying,3.6232,0.5,up,0.644533157,644.533157,6.468526267,33,neat,3.6232,0.5,up,1.759610176,1759.610176,7.472847573,34,thrifty,3.6232,-0.5,up,0.759540081,759.540081,6.632713094,35,anxious,3.6232,0.5,up,0.942843914,942.843914,6.848900748,36,orderly,3.6232,-0.5,down,0.910264015,910.264015,6.813734684,37,moody,3.6232,-0.5,up,1.291068077,1291.068077,7.163225121,38,impulsive,3.6232,0.5,up,0.894402027,894.402027,6.796155369,39,tidy,3.6232,0.5,up,1.358752966,1358.752966,7.214322621,40,inventive,3.6234,0.5,up,1.092180967,1092.180967,6.995931863,1,talented,3.8234,0.5,up,0.908247948,908.247948,6.811517412,2,disciplined,3.8234,0.5,down,0.941842079,941.842079,6.847837616,3,confident,3.8234,-0.5,up,2.042062998,2042.062998,7.621715849,4,inhibited,3.8234,-0.5,down,1.342072964,1342.072964,7.201970686,5,withdrawn,3.8234,-0.5,up,1.792695045,1792.695045,7.491475378,6,cynical,3.8234,-0.5,down,0.976822853,976.822853,6.884305318,7,tense,3.8234,0.5,up,1.226388931,1226.388931,7.111829302,8,orderly,3.8234,-0.5,down,1.575804949,1575.804949,7.362521499,9,fearful,3.8234,-0.5,down,0.860184908,860.184908,6.757147375,10,messy,3.8234,-0.5,down,1.425847054,1425.847054,7.26252134,11,insecure,3.8234,0.5,up,1.04154706,1041.54706,6.948462445,12,persistent,3.8234,-0.5,down,1.192425966,1192.425966,7.083745138,13,worrying,3.8234,0.5,up,1.109469175,1109.469175,7.011636959,14,tender,3.8234,-0.5,down,1.108933926,1108.933926,7.011154406,15,impulsive,3.8234,0.5,down,1.42416501,1424.16501,7.261340963,16,enthusiastic,3.8234,0.5,up,0.808847904,808.847904,6.695610894,17,ambitious,3.8234,0.5,up,1.744117022,1744.117022,7.464003702,18,tidy,3.8234,-0.5,down,1.059831858,1059.831858,6.96586555,19,boring,3.8234,-0.5,up,1.225228071,1225.228071,7.110882286,20,forgetful,3.8234,-0.5,up,1.242550135,1242.550135,7.124921107,21,gullible,3.8234,-0.5,up,1.075875998,1075.875998,6.980890491,22,clumsy,3.8234,0.5,up,2.060041904,2060.041904,7.630481603,23,proud,3.8234,-0.5,NA,NA,NA,NA,24,timid,3.8234,0.5,down,1.542470932,1542.470932,7.341140911,25,outgoing,3.8234,0.5,up,1.223309994,1223.309994,7.109315574,26,inventive,3.8234,0.5,up,0.926172018,926.172018,6.831059982,27,thrifty,3.8234,-0.5,up,1.508786201,1508.786201,7.319060766,28,irritable,3.8234,0.5,up,0.858640909,858.640909,6.755350801,29,courageous,3.8234,0.5,up,1.008468151,1008.468151,6.916187776,30,idealistic,3.8234,0.5,down,0.727822065,727.822065,6.590056602,31,neat,3.8234,-0.5,up,1.01009202,1010.09202,6.917796715,32,moody,3.8234,-0.5,up,1.041507006,1041.507006,6.948423988,33,antisocial,3.8234,0.5,up,0.775876045,775.876045,6.653992772,34,trusting,3.8234,-0.5,down,1.109679937,1109.679937,7.011826908,35,anxious,3.8234,-0.5,down,1.275722981,1275.722981,7.151268341,36,childish,3.8234,0.5,up,1.208791971,1208.791971,7.097376769,37,brilliant,3.8234,0.5,up,0.777691126,777.691126,6.656329435,38,wise,3.8234,0.5,down,1.025458097,1025.458097,6.932894716,39,artistic,3.8234,-0.5,up,1.159173012,1159.173012,7.055462109,40,stubborn,3.8235,0.5,up,0.893797874,893.797874,6.795479658,1,proud,3.8235,0.5,up,2.30719614,2307.19614,7.743788274,2,enthusiastic,3.8235,0.5,up,0.644323111,644.323111,6.468200325,3,neat,3.8235,-0.5,up,1.092450857,1092.450857,6.996178944,4,worrying,3.8235,-0.5,up,1.009226084,1009.226084,6.916939063,5,stubborn,3.8235,-0.5,down,1.175704956,1175.704956,7.069623209,6,withdrawn,3.8235,-0.5,up,0.842364788,842.364788,6.73621316,7,impulsive,3.8235,0.5,down,2.142410994,2142.410994,7.669687107,8,thrifty,3.8235,-0.5,down,2.058907032,2058.907032,7.629930554,9,gullible,3.8235,0.5,up,0.693799019,693.799019,6.542182321,10,tidy,3.8235,-0.5,down,1.143258095,1143.258095,7.041637443,11,boring,3.8235,-0.5,up,1.193238974,1193.238974,7.084426716,12,clumsy,3.8235,0.5,down,1.759413004,1759.413004,7.472735512,13,orderly,3.8235,0.5,up,0.841033936,841.033936,6.734632011,14,courageous,3.8235,0.5,up,0.725579023,725.579023,6.586969989,15,ambitious,3.8235,-0.5,up,1.476795197,1476.795197,7.297629611,16,tense,3.8235,-0.5,up,1.492698908,1492.698908,7.308341108,17,fearful,3.8235,-0.5,up,1.125551939,1125.551939,7.026028807,18,irritable,3.8235,0.5,down,1.209268093,1209.268093,7.097770574,19,outgoing,3.8235,0.5,up,1.325387955,1325.387955,7.189460492,20,trusting,3.8235,-0.5,up,1.010112047,1010.112047,6.917816541,21,moody,3.8235,0.5,down,1.242791891,1242.791891,7.125115653,22,artistic,3.8235,-0.5,up,1.093037844,1093.037844,6.996716112,23,anxious,3.8235,0.5,up,1.275537968,1275.537968,7.151123304,24,inventive,3.8235,0.5,up,1.159775019,1159.775019,7.055981316,25,tender,3.8235,-0.5,down,1.556123018,1556.123018,7.349952762,26,antisocial,3.8235,0.5,up,0.975488186,975.488186,6.882938049,27,confident,3.8235,-0.5,down,1.493412972,1493.412972,7.308819365,28,timid,3.8235,-0.5,down,1.776797056,1776.797056,7.482567616,29,messy,3.8235,0.5,up,1.075911999,1075.911999,6.980923952,30,talented,3.8235,0.5,up,1.044451952,1044.451952,6.951247579,31,wise,3.8235,0.5,up,1.65886116,1658.86116,7.413886598,32,brilliant,3.8235,-0.5,NA,NA,NA,NA,33,inhibited,3.8235,-0.5,up,1.175786018,1175.786018,7.069692154,34,childish,3.8235,-0.5,down,1.209555149,1209.555149,7.098007926,35,cynical,3.8235,-0.5,up,0.925477028,925.477028,6.830309311,36,forgetful,3.8235,0.5,up,1.208425999,1208.425999,7.097073965,37,idealistic,3.8235,-0.5,down,0.959419966,959.419966,6.8663289,38,insecure,3.8235,0.5,up,1.474766016,1474.766016,7.296254623,39,persistent,3.8235,0.5,up,1.241573095,1241.573095,7.12413448,40,disciplined,3.8236,0.5,up,1.375006914,1375.006914,7.226214038,1,idealistic,4.6236,-0.5,down,0.893339157,893.339157,6.794966304,2,moody,4.6236,-0.5,down,0.992710114,992.710114,6.900438692,3,cynical,4.6236,0.5,up,1.007727861,1007.727861,6.915453433,4,enthusiastic,4.6236,-0.5,down,0.709233999,709.233999,6.564185513,5,insecure,4.6236,-0.5,down,0.758864164,758.864164,6.631822794,6,forgetful,4.6236,-0.5,down,0.708552837,708.552837,6.563224632,7,antisocial,4.6236,0.5,up,0.958488941,958.488941,6.865358025,8,persistent,4.6236,-0.5,down,0.759687901,759.687901,6.632907692,9,boring,4.6236,0.5,up,0.692425013,692.425013,6.540199948,10,talented,4.6236,0.5,up,0.660223007,660.223007,6.492577667,11,proud,4.6236,0.5,up,1.261050224,1261.050224,7.139700164,12,tidy,4.6236,-0.5,down,1.19217515,1192.17515,7.083534775,13,inhibited,4.6236,-0.5,down,0.776405811,776.405811,6.654675336,14,messy,4.6236,0.5,up,0.625417948,625.417948,6.438420143,15,courageous,4.6236,0.5,down,1.65970397,1659.70397,7.414394534,16,tender,4.6236,0.5,up,0.792621136,792.621136,6.675345347,17,artistic,4.6236,0.5,up,0.675554991,675.554991,6.515534562,18,brilliant,4.6236,-0.5,down,0.708808899,708.808899,6.563585954,19,withdrawn,4.6236,-0.5,down,0.708863974,708.863974,6.563663652,20,childish,4.6236,-0.5,down,0.725818157,725.818157,6.587299511,21,worrying,4.6236,0.5,up,0.642250061,642.250061,6.464977731,22,ambitious,4.6236,0.5,up,0.908102036,908.102036,6.811356747,23,disciplined,4.6236,0.5,up,0.609186172,609.186172,6.412123922,24,outgoing,4.6236,-0.5,down,0.960263968,960.263968,6.867208213,25,tense,4.6236,-0.5,up,0.890405178,890.405178,6.791676615,26,stubborn,4.6236,0.5,up,0.875797033,875.797033,6.775134367,27,trusting,4.6236,-0.5,down,0.676660061,676.660061,6.517169021,28,clumsy,4.6236,-0.5,down,0.776263952,776.263952,6.654492607,29,anxious,4.6236,-0.5,down,0.626498938,626.498938,6.440147079,30,fearful,4.6236,0.5,up,0.909719944,909.719944,6.813136798,31,thrifty,4.6236,0.5,up,0.792292118,792.292118,6.67493016,32,inventive,4.6236,0.5,up,0.575130224,575.130224,6.354596492,33,confident,4.6236,0.5,up,1.57614994,1576.14994,7.362740405,34,orderly,4.6236,-0.5,down,0.743560791,743.560791,6.611450526,35,timid,4.6236,-0.5,up,0.825657129,825.657129,6.716179589,36,impulsive,4.6236,-0.5,down,0.892251968,892.251968,6.793748568,37,irritable,4.6236,0.5,up,1.427687883,1427.687883,7.26381155,38,neat,4.6236,-0.5,down,0.858733892,858.733892,6.755459086,39,gullible,4.6236,0.5,up,0.627655029,627.655029,6.441990699,40,wise,4.6237,0.5,down,0.94475317,944.75317,6.850923698,1,neat,3.4237,0.5,up,0.89198184,891.98184,6.793445774,2,artistic,3.4237,0.5,down,1.009601831,1009.601831,6.917311305,3,tender,3.4237,0.5,down,1.407660961,1407.660961,7.249684713,4,enthusiastic,3.4237,0.5,up,0.843047142,843.047142,6.737022878,5,orderly,3.4237,-0.5,up,0.859433174,859.433174,6.756273072,6,stubborn,3.4237,0.5,up,0.927037954,927.037954,6.831994508,7,proud,3.4237,-0.5,down,1.141100168,1141.100168,7.039748136,8,antisocial,3.4237,0.5,down,1.642436028,1642.436028,7.403935802,9,outgoing,3.4237,-0.5,up,0.759321928,759.321928,6.632425835,10,worrying,3.4237,-0.5,up,1.159960985,1159.960985,7.05614165,11,clumsy,3.4237,-0.5,up,1.625550032,1625.550032,7.393601519,12,inhibited,3.4237,0.5,down,0.89230299,892.30299,6.79380575,13,brilliant,3.4237,-0.5,down,1.025157928,1025.157928,6.932601956,14,forgetful,3.4237,-0.5,up,1.160244942,1160.244942,7.056386419,15,timid,3.4237,0.5,up,1.027399063,1027.399063,6.934785706,16,tidy,3.4237,-0.5,down,0.925902128,925.902128,6.830768536,17,gullible,3.4237,0.5,down,1.358827114,1358.827114,7.21437719,18,confident,3.4237,-0.5,down,1.242906809,1242.906809,7.125208116,19,fearful,3.4237,-0.5,up,0.758637905,758.637905,6.631524595,20,impulsive,3.4237,0.5,up,0.992903948,992.903948,6.90063393,21,thrifty,3.4237,0.5,up,0.708703995,708.703995,6.563437943,22,ambitious,3.4237,-0.5,up,0.809648037,809.648037,6.696599631,23,moody,3.4237,-0.5,up,1.008657217,1008.657217,6.916375237,24,irritable,3.4237,0.5,up,1.25848794,1258.48794,7.137666232,25,courageous,3.4237,0.5,down,1.273611069,1273.611069,7.149611506,26,trusting,3.4237,-0.5,up,1.792390823,1792.390823,7.491305663,27,childish,3.4237,0.5,up,0.958670855,958.670855,6.865547799,28,idealistic,3.4237,0.5,down,1.559175015,1559.175015,7.351912124,29,talented,3.4237,-0.5,down,0.809457064,809.457064,6.696363732,30,cynical,3.4237,-0.5,up,1.94204998,1942.04998,7.571499385,31,withdrawn,3.4237,0.5,up,1.34186697,1341.86697,7.201817184,32,persistent,3.4237,0.5,up,1.143951893,1143.951893,7.042244119,33,wise,3.4237,-0.5,up,0.826204062,826.204062,6.716841791,34,anxious,3.4237,-0.5,down,1.475841999,1475.841999,7.296983953,35,insecure,3.4237,-0.5,up,1.093594074,1093.594074,6.997224867,36,tense,3.4237,0.5,up,1.225465059,1225.465059,7.111075691,37,inventive,3.4237,0.5,up,0.974958181,974.958181,6.882394579,38,disciplined,3.4237,-0.5,up,1.226070166,1226.070166,7.111569347,39,boring,3.4237,-0.5,down,1.159578085,1159.578085,7.055811498,40,messy,3.4238,-0.5,down,1.109431982,1109.431982,7.011603435,1,stubborn,3.4238,-0.5,down,1.024523973,1024.523973,6.931983367,2,antisocial,3.4238,-0.5,up,1.141780853,1141.780853,7.040344474,3,forgetful,3.4238,-0.5,down,1.17694211,1176.94211,7.070674922,4,moody,3.4238,0.5,up,0.959030151,959.030151,6.865922514,5,talented,3.4238,0.5,up,1.492198944,1492.198944,7.308006112,6,brilliant,3.4238,0.5,down,1.360203028,1360.203028,7.215389253,7,proud,3.4238,0.5,up,1.908135891,1908.135891,7.553882071,8,persistent,3.4238,-0.5,NA,NA,NA,NA,9,inhibited,3.4238,0.5,up,0.790889025,790.889025,6.673157661,10,enthusiastic,3.4238,0.5,up,1.475129843,1475.129843,7.296501294,11,courageous,3.4238,-0.5,down,2.292106867,2292.106867,7.737226703,12,irritable,3.4238,0.5,down,1.492909908,1492.909908,7.308482453,13,thrifty,3.4238,-0.5,up,0.942049026,942.049026,6.848057318,14,childish,3.4238,-0.5,down,0.926594019,926.594019,6.831515518,15,clumsy,3.4238,-0.5,up,1.660208941,1660.208941,7.414698742,16,tense,3.4238,-0.5,down,0.810299873,810.299873,6.697404393,17,messy,3.4238,-0.5,up,1.142627001,1142.627001,7.041085277,18,worrying,3.4238,-0.5,down,1.259672165,1259.672165,7.13860678,19,timid,3.4238,-0.5,up,1.125419855,1125.419855,7.025911449,20,gullible,3.4238,0.5,down,0.892579079,892.579079,6.794115114,21,artistic,3.4238,0.5,up,0.842618942,842.618942,6.73651483,22,trusting,3.4238,0.5,down,1.809686184,1809.686184,7.50090873,23,tender,3.4238,-0.5,down,2.075951099,2075.951099,7.638174689,24,cynical,3.4238,0.5,up,0.874920845,874.920845,6.774133419,25,ambitious,3.4238,-0.5,up,1.70728898,1707.28898,7.442662,26,fearful,3.4238,-0.5,down,0.90926981,909.26981,6.812641871,27,insecure,3.4238,-0.5,down,0.875499964,875.499964,6.774795111,28,withdrawn,3.4238,0.5,up,0.927170038,927.170038,6.832136977,29,tidy,3.4238,0.5,up,0.658972979,658.972979,6.490682531,30,confident,3.4238,-0.5,down,0.693109989,693.109989,6.541188701,31,boring,3.4238,0.5,up,0.710973024,710.973024,6.566634488,32,wise,3.4238,0.5,up,0.97578001,975.78001,6.883237161,33,orderly,3.4238,0.5,up,0.692638874,692.638874,6.540508758,34,outgoing,3.4238,0.5,up,1.375526905,1375.526905,7.22659214,35,inventive,3.4238,-0.5,up,0.758951187,758.951187,6.631937463,36,impulsive,3.4238,0.5,up,0.757925987,757.925987,6.630585738,37,idealistic,3.4238,0.5,up,0.858361959,858.361959,6.755025874,38,disciplined,3.4238,0.5,up,1.210576057,1210.576057,7.098851605,39,neat,3.4238,-0.5,down,2.809355021,2809.355021,7.940710206,40,anxious,3.4239,-0.5,up,1.42624712,1426.24712,7.262801882,1,stubborn,2239,0.5,up,1.576244116,1576.244116,7.362800154,2,orderly,2239,-0.5,up,1.425208092,1425.208092,7.262073112,3,withdrawn,2239,-0.5,down,2.192576885,2192.576885,7.692832791,4,cynical,2239,0.5,down,1.392185926,1392.185926,7.2386304,5,inventive,2239,0.5,down,2.058132887,2058.132887,7.629554485,6,persistent,2239,-0.5,up,0.893723011,893.723011,6.795395896,7,tense,2239,-0.5,up,0.992352009,992.352009,6.900077892,8,anxious,2239,0.5,down,1.657983065,1657.983065,7.413357122,9,disciplined,2239,0.5,down,1.610899925,1610.899925,7.384548261,10,tidy,2239,0.5,down,1.225831032,1225.831032,7.111374286,11,artistic,2239,-0.5,up,1.543512106,1543.512106,7.341815687,12,messy,2239,0.5,down,1.077069998,1077.069998,6.981999669,13,wise,2239,0.5,down,1.610548973,1610.548973,7.384330377,14,neat,2239,-0.5,up,1.175925016,1175.925016,7.069810365,15,worrying,2239,0.5,up,1.342607975,1342.607975,7.202369251,16,trusting,2239,-0.5,up,1.242817163,1242.817163,7.125135987,17,fearful,2239,0.5,down,1.65913105,1659.13105,7.41404928,18,tender,2239,-0.5,up,1.209826946,1209.826946,7.098232609,19,clumsy,2239,0.5,down,0.891815186,891.815186,6.793258921,20,brilliant,2239,0.5,down,2.493453026,2493.453026,7.821423786,21,proud,2239,0.5,down,1.342340946,1342.340946,7.202170343,22,outgoing,2239,-0.5,down,1.591799021,1591.799021,7.372620115,23,antisocial,2239,-0.5,up,2.425311804,2425.311804,7.793715374,24,impulsive,2239,-0.5,up,1.275705099,1275.705099,7.151254324,25,insecure,2239,-0.5,up,1.190493107,1190.493107,7.082122876,26,gullible,2239,-0.5,down,1.508887053,1508.887053,7.319127607,27,forgetful,2239,-0.5,up,0.975517035,975.517035,6.882967623,28,irritable,2239,0.5,down,1.358420849,1358.420849,7.214078164,29,courageous,2239,-0.5,up,1.226682901,1226.682901,7.112068977,30,boring,2239,0.5,up,1.325201988,1325.201988,7.189320171,31,idealistic,2239,0.5,down,1.558811188,1558.811188,7.351678751,32,ambitious,2239,-0.5,up,1.674953938,1674.953938,7.423540944,33,inhibited,2239,0.5,NA,NA,NA,NA,34,enthusiastic,2239,-0.5,up,1.160233974,1160.233974,7.056376965,35,timid,2239,-0.5,up,0.809356213,809.356213,6.696239133,36,childish,2239,-0.5,up,0.460456133,460.456133,6.132217592,37,moody,2239,0.5,up,1.642292976,1642.292976,7.4038487,38,thrifty,2239,0.5,down,1.108309031,1108.309031,7.010590737,39,confident,2239,0.5,down,1.975690842,1975.690842,7.58867341,40,talented,2240,0.5,up,0.67702508,677.02508,6.517708318,1,proud,3.6240,0.5,up,2.359116077,2359.116077,7.766042284,2,trusting,3.6240,-0.5,up,0.742395878,742.395878,6.609882629,3,gullible,3.6240,0.5,up,0.674381018,674.381018,6.51379526,4,enthusiastic,3.6240,-0.5,up,1.075423002,1075.423002,6.980469353,5,irritable,3.6240,0.5,up,1.609016895,1609.016895,7.383378647,6,talented,3.6240,-0.5,up,0.860136986,860.136986,6.757091663,7,messy,3.6240,-0.5,down,0.976514816,976.514816,6.883989923,8,timid,3.6240,0.5,up,1.224901915,1224.901915,7.11061605,9,persistent,3.6240,-0.5,up,0.892735958,892.735958,6.794290857,10,insecure,3.6240,-0.5,down,0.975353003,975.353003,6.88279946,11,withdrawn,3.6240,0.5,up,1.092458963,1092.458963,6.996186364,12,artistic,3.6240,-0.5,up,0.843409061,843.409061,6.737452085,13,moody,3.6240,-0.5,down,1.175784111,1175.784111,7.069690533,14,fearful,3.6240,-0.5,up,0.726268053,726.268053,6.587919166,15,anxious,3.6240,-0.5,up,0.676438093,676.438093,6.516840933,16,clumsy,3.6240,-0.5,down,0.791768789,791.768789,6.674269416,17,antisocial,3.6240,-0.5,down,0.826303959,826.303959,6.716962695,18,tense,3.6240,0.5,up,1.024772882,1024.772882,6.932226288,19,disciplined,3.6240,-0.5,down,1.025923014,1025.923014,6.933347988,20,cynical,3.6240,0.5,up,0.841898918,841.898918,6.735659957,21,idealistic,3.6240,0.5,up,0.592189074,592.189074,6.383825966,22,brilliant,3.6240,-0.5,up,0.708931923,708.931923,6.563759504,23,impulsive,3.6240,0.5,down,0.743366957,743.366957,6.611189808,24,tender,3.6240,-0.5,down,0.708735943,708.735943,6.563483021,25,forgetful,3.6240,0.5,down,0.742177963,742.177963,6.609589057,26,neat,3.6240,-0.5,up,0.875955105,875.955105,6.77531484,27,stubborn,3.6240,0.5,up,0.576222897,576.222897,6.35649456,28,orderly,3.6240,0.5,down,0.959618092,959.618092,6.866535384,29,thrifty,3.6240,0.5,up,0.758995056,758.995056,6.631995264,30,ambitious,3.6240,0.5,up,0.642481089,642.481089,6.465337383,31,outgoing,3.6240,0.5,up,0.575739861,575.739861,6.355655928,32,confident,3.6240,0.5,up,1.108559847,1108.559847,7.010817017,33,inventive,3.6240,0.5,up,0.677630901,677.630901,6.518602746,34,tidy,3.6240,-0.5,down,0.743108034,743.108034,6.610841437,35,boring,3.6240,-0.5,down,0.675900936,675.900936,6.516046521,36,worrying,3.6240,-0.5,up,0.875238895,875.238895,6.774496872,37,childish,3.6240,0.5,down,0.925196886,925.196886,6.830006565,38,courageous,3.6240,0.5,down,1.310407877,1310.407877,7.178093724,39,wise,3.6240,-0.5,down,0.90892601,908.92601,6.812263694,40,inhibited,3.6241,-0.5,down,1.360288858,1360.288858,7.215452352,1,timid,3.4241,0.5,up,1.457864046,1457.864046,7.284727661,2,idealistic,3.4241,-0.5,up,1.475701094,1475.701094,7.296888474,3,impulsive,3.4241,0.5,down,1.277436018,1277.436018,7.152610237,4,neat,3.4241,-0.5,down,1.508750916,1508.750916,7.31903738,5,inhibited,3.4241,0.5,up,1.625771999,1625.771999,7.393738058,6,talented,3.4241,0.5,up,0.907547951,907.547951,6.810746403,7,enthusiastic,3.4241,-0.5,down,1.141932964,1141.932964,7.040477688,8,withdrawn,3.4241,-0.5,up,1.643064976,1643.064976,7.404318664,9,boring,3.4241,0.5,up,1.024374008,1024.374008,6.931836981,10,disciplined,3.4241,0.5,up,0.625604868,625.604868,6.438718971,11,confident,3.4241,-0.5,up,1.774448872,1774.448872,7.481245159,12,antisocial,3.4241,-0.5,up,1.392390966,1392.390966,7.238777668,13,childish,3.4241,-0.5,down,0.925863028,925.863028,6.830726306,14,cynical,3.4241,0.5,up,0.891189098,891.189098,6.792556636,15,courageous,3.4241,-0.5,down,1.476505041,1476.505041,7.297433115,16,clumsy,3.4241,0.5,up,2.025305986,2025.305986,7.613476072,17,inventive,3.4241,-0.5,up,0.992795229,992.795229,6.900524428,18,anxious,3.4241,0.5,up,0.875813007,875.813007,6.775152606,19,outgoing,3.4241,0.5,down,1.027194023,1027.194023,6.934586114,20,tidy,3.4241,0.5,up,0.659047127,659.047127,6.490795045,21,brilliant,3.4241,0.5,up,0.592675209,592.675209,6.384646541,22,trusting,3.4241,-0.5,up,0.560324907,560.324907,6.328516807,23,tense,3.4241,-0.5,up,0.775811911,775.811911,6.653910108,24,worrying,3.4241,-0.5,up,0.810385942,810.385942,6.697510606,25,messy,3.4241,0.5,up,0.706949949,706.949949,6.56095987,26,artistic,3.4241,0.5,down,0.842875004,842.875004,6.736818672,27,thrifty,3.4241,-0.5,up,0.842944145,842.944145,6.736900698,28,fearful,3.4241,-0.5,up,0.659004927,659.004927,6.490731011,29,forgetful,3.4241,0.5,up,0.761034012,761.034012,6.634678051,30,wise,3.4241,-0.5,up,1.159203053,1159.203053,7.055488025,31,insecure,3.4241,0.5,down,0.993121862,993.121862,6.900853378,32,tender,3.4241,-0.5,down,1.159008026,1159.008026,7.055319768,33,stubborn,3.4241,-0.5,down,0.842632055,842.632055,6.736530392,34,gullible,3.4241,0.5,up,0.909006119,909.006119,6.812351826,35,ambitious,3.4241,-0.5,up,1.376872063,1376.872063,7.227569584,36,moody,3.4241,0.5,down,1.509498119,1509.498119,7.319532503,37,orderly,3.4241,0.5,up,0.610297918,610.297918,6.413947228,38,proud,3.4241,0.5,up,0.774775028,774.775028,6.652572701,39,persistent,3.4241,-0.5,down,1.042132854,1042.132854,6.949024713,40,irritable,3.4242,0.5,up,0.725212097,725.212097,6.58646416,1,disciplined,3.4242,0.5,down,0.892457008,892.457008,6.793978342,2,talented,3.4242,0.5,up,0.873991966,873.991966,6.773071183,3,enthusiastic,3.4242,0.5,up,0.743334055,743.334055,6.611145547,4,tender,3.4242,0.5,down,0.811057091,811.057091,6.698338447,5,wise,3.4242,0.5,up,0.559267998,559.267998,6.326628782,6,artistic,3.4242,-0.5,up,0.626245022,626.245022,6.439741703,7,fearful,3.4242,0.5,down,0.925000906,925.000906,6.829794717,8,idealistic,3.4242,-0.5,down,0.775443077,775.443077,6.653434578,9,gullible,3.4242,-0.5,up,0.675484896,675.484896,6.515430797,10,withdrawn,3.4242,0.5,down,0.825480938,825.480938,6.715966172,11,confident,3.4242,-0.5,up,1.041803837,1041.803837,6.948708948,12,antisocial,3.4242,-0.5,down,0.793314934,793.314934,6.676220285,13,clumsy,3.4242,-0.5,down,0.992619038,992.619038,6.900346943,14,stubborn,3.4242,0.5,up,0.742485046,742.485046,6.61000273,15,orderly,3.4242,-0.5,up,0.842161179,842.161179,6.73597142,16,impulsive,3.4242,0.5,up,0.70916605,709.16605,6.564089702,17,trusting,3.4242,-0.5,up,0.842483997,842.483997,6.736354667,18,insecure,3.4242,-0.5,up,0.876848936,876.848936,6.776334727,19,tense,3.4242,-0.5,up,0.543490171,543.490171,6.298011622,20,moody,3.4242,-0.5,up,0.708793879,708.793879,6.563564764,21,worrying,3.4242,-0.5,up,0.776166916,776.166916,6.654367595,22,cynical,3.4242,0.5,up,0.625599861,625.599861,6.438710967,23,ambitious,3.4242,0.5,up,0.72576499,725.76499,6.587226257,24,outgoing,3.4242,0.5,down,0.926250219,926.250219,6.831144413,25,thrifty,3.4242,-0.5,up,0.643125057,643.125057,6.466339195,26,anxious,3.4242,-0.5,up,0.90712285,907.12285,6.810277887,27,childish,3.4242,-0.5,up,0.842216969,842.216969,6.736037664,28,inhibited,3.4242,-0.5,down,0.793590784,793.590784,6.676567943,29,messy,3.4242,0.5,up,0.808008194,808.008194,6.6945722,30,persistent,3.4242,0.5,up,0.561177969,561.177969,6.330038091,31,neat,3.4242,-0.5,up,0.577255011,577.255011,6.358284129,32,timid,3.4242,0.5,up,0.561083078,561.083078,6.329868984,33,tidy,3.4242,0.5,down,0.707854986,707.854986,6.562239251,34,brilliant,3.4242,0.5,up,0.726997852,726.997852,6.588923523,35,proud,3.4242,-0.5,up,0.825405121,825.405121,6.715874322,36,forgetful,3.4242,-0.5,down,0.775477171,775.477171,6.653478544,37,irritable,3.4242,0.5,down,0.775303125,775.303125,6.653254082,38,courageous,3.4242,0.5,down,0.825562954,825.562954,6.716065522,39,inventive,3.4242,-0.5,down,0.876061916,876.061916,6.775436769,40,boring,3.4243,-0.5,up,1.376386881,1376.386881,7.227217142,1,cynical,3.2243,-0.5,down,1.541462898,1541.462898,7.340487178,2,antisocial,3.2243,-0.5,up,1.19133091,1191.33091,7.082826373,3,irritable,3.2243,-0.5,up,1.042107821,1042.107821,6.949000692,4,forgetful,3.2243,0.5,up,0.744245052,744.245052,6.612370352,5,neat,3.2243,-0.5,up,0.77686286,776.86286,6.655263835,6,moody,3.2243,0.5,up,0.757878065,757.878065,6.630522509,7,enthusiastic,3.2243,0.5,up,1.20882082,1208.82082,7.097400635,8,talented,3.2243,0.5,up,0.758874178,758.874178,6.63183599,9,brilliant,3.2243,-0.5,up,0.925254107,925.254107,6.83006841,10,worrying,3.2243,0.5,down,1.175681114,1175.681114,7.06960293,11,outgoing,3.2243,-0.5,down,1.408893824,1408.893824,7.250560153,12,impulsive,3.2243,0.5,up,1.043389082,1043.389082,6.950229427,13,proud,3.2243,-0.5,up,0.808275938,808.275938,6.694903508,14,childish,3.2243,-0.5,down,1.093307018,1093.307018,6.996962344,15,boring,3.2243,0.5,down,1.27579093,1275.79093,7.151321603,16,confident,3.2243,0.5,down,1.375590801,1375.590801,7.226638591,17,inventive,3.2243,-0.5,up,1.159077168,1159.077168,7.055379423,18,insecure,3.2243,0.5,down,1.525172949,1525.172949,7.329863092,19,idealistic,3.2243,-0.5,up,0.959751129,959.751129,6.86667401,20,messy,3.2243,0.5,up,0.926187992,926.187992,6.831077229,21,orderly,3.2243,0.5,down,1.075839996,1075.839996,6.980857027,22,trusting,3.2243,0.5,up,1.79161191,1791.61191,7.490871002,23,persistent,3.2243,0.5,up,0.909852982,909.852982,6.813283028,24,tender,3.2243,0.5,up,1.091626167,1091.626167,6.99542376,25,disciplined,3.2243,0.5,up,0.942178011,942.178011,6.848194228,26,tidy,3.2243,-0.5,up,1.54359293,1543.59293,7.341868049,27,tense,3.2243,-0.5,up,1.175759077,1175.759077,7.069669241,28,fearful,3.2243,0.5,down,1.626248121,1626.248121,7.394030874,29,thrifty,3.2243,-0.5,up,0.992644072,992.644072,6.900372163,30,gullible,3.2243,-0.5,up,1.776055098,1776.055098,7.482149947,31,anxious,3.2243,-0.5,up,1.375335932,1375.335932,7.226453294,32,inhibited,3.2243,0.5,down,1.225594997,1225.594997,7.111181717,33,artistic,3.2243,-0.5,down,1.075598955,1075.598955,6.980632953,34,withdrawn,3.2243,0.5,down,1.194167137,1194.167137,7.085204265,35,wise,3.2243,-0.5,up,1.610383987,1610.383987,7.384227931,36,timid,3.2243,0.5,down,1.491698027,1491.698027,7.307670366,37,courageous,3.2243,0.5,up,0.892129898,892.129898,6.793611748,38,ambitious,3.2243,-0.5,up,1.058763027,1058.763027,6.96485655,39,stubborn,3.2243,-0.5,up,0.943207979,943.207979,6.849286809,40,clumsy,3.2244,0.5,up,0.6760571,676.0571,6.51627754,1,artistic,4244,-0.5,down,1.058950901,1058.950901,6.965033981,2,forgetful,4244,0.5,up,0.641903162,641.903162,6.464437454,3,inventive,4244,0.5,down,0.976161957,976.161957,6.883628512,4,orderly,4244,-0.5,down,0.741549969,741.549969,6.608742548,5,antisocial,4244,-0.5,up,0.893240929,893.240929,6.794856342,6,clumsy,4244,-0.5,up,0.759496927,759.496927,6.632656276,7,anxious,4244,-0.5,up,0.808790922,808.790922,6.695540444,8,irritable,4244,0.5,down,1.243939161,1243.939161,7.126038366,9,tidy,4244,0.5,down,0.727677107,727.677107,6.589857415,10,neat,4244,-0.5,up,0.69241786,692.41786,6.540189617,11,worrying,4244,-0.5,up,0.843120098,843.120098,6.737109413,12,boring,4244,0.5,down,1.175466061,1175.466061,7.069419996,13,brilliant,4244,0.5,up,1.59098196,1590.98196,7.372106689,14,enthusiastic,4244,-0.5,down,0.992008924,992.008924,6.899732103,15,inhibited,4244,0.5,up,1.460270882,1460.270882,7.286377233,16,proud,4244,0.5,up,0.758618116,758.618116,6.63149851,17,idealistic,4244,0.5,up,1.025079966,1025.079966,6.932525904,18,persistent,4244,0.5,up,0.658942223,658.942223,6.490635857,19,confident,4244,0.5,up,0.65970397,659.70397,6.491791204,20,thrifty,4244,-0.5,up,0.64260602,642.60602,6.465531815,21,cynical,4244,-0.5,down,1.010296106,1010.296106,6.917998741,22,timid,4244,0.5,down,1.210795879,1210.795879,7.099033174,23,wise,4244,0.5,down,1.143146992,1143.146992,7.041540257,24,tender,4244,-0.5,up,0.809292078,809.292078,6.696159888,25,stubborn,4244,-0.5,up,0.642426014,642.426014,6.465251657,26,impulsive,4244,0.5,up,0.589789867,589.789867,6.379766316,27,courageous,4244,-0.5,up,0.709623814,709.623814,6.56473499,28,tense,4244,-0.5,up,0.925903082,925.903082,6.830769566,29,insecure,4244,0.5,up,0.809295893,809.295893,6.696164602,30,outgoing,4244,0.5,up,0.809233904,809.233904,6.696088003,31,talented,4244,-0.5,up,1.259033918,1259.033918,7.138099974,32,gullible,4244,-0.5,up,0.610300064,610.300064,6.413950744,33,moody,4244,-0.5,up,0.859207869,859.207869,6.756010882,34,fearful,4244,-0.5,up,0.892693996,892.693996,6.794243852,35,childish,4244,-0.5,up,0.525677919,525.677919,6.264688704,36,withdrawn,4244,0.5,down,1.074981928,1074.981928,6.980059129,37,disciplined,4244,0.5,up,0.675595045,675.595045,6.515593851,38,ambitious,4244,0.5,down,0.792502165,792.502165,6.675195238,39,trusting,4244,-0.5,up,0.693454981,693.454981,6.541686322,40,messy,4245,0.5,down,0.94175005,941.75005,6.8477399,1,disciplined,2.8245,0.5,down,0.910926819,910.926819,6.814462564,2,tidy,2.8245,0.5,down,1.058887005,1058.887005,6.96497364,3,outgoing,2.8245,0.5,down,0.594321012,594.321012,6.387419598,4,neat,2.8245,-0.5,up,1.22674489,1226.74489,7.112119509,5,moody,2.8245,0.5,down,0.592591047,592.591047,6.384504527,6,artistic,2.8245,-0.5,down,0.742105007,742.105007,6.609490752,7,forgetful,2.8245,-0.5,down,1.14264679,1142.64679,7.041102596,8,insecure,2.8245,0.5,up,0.69107008,691.07008,6.538241237,9,idealistic,2.8245,-0.5,down,0.710179091,710.179091,6.565517179,10,timid,2.8245,-0.5,up,0.958991051,958.991051,6.865881743,11,irritable,2.8245,0.5,up,0.641731977,641.731977,6.464170735,12,courageous,2.8245,-0.5,up,0.792547941,792.547941,6.675252997,13,gullible,2.8245,-0.5,down,0.8099401,809.9401,6.696960294,14,boring,2.8245,-0.5,down,1.042493105,1042.493105,6.94937034,15,anxious,2.8245,0.5,down,0.875515938,875.515938,6.774813356,16,inventive,2.8245,-0.5,down,0.343541145,343.541145,5.839306886,17,tense,2.8245,-0.5,up,1.526859999,1526.859999,7.330968617,18,messy,2.8245,0.5,up,0.593826056,593.826056,6.386586441,19,proud,2.8245,-0.5,up,0.725532055,725.532055,6.586905255,20,impulsive,2.8245,-0.5,up,0.509150028,509.150028,6.232742724,21,cynical,2.8245,0.5,down,0.442479849,442.479849,6.092394924,22,brilliant,2.8245,-0.5,up,0.859284878,859.284878,6.756100506,23,stubborn,2.8245,-0.5,up,1.175328016,1175.328016,7.06930255,24,antisocial,2.8245,0.5,up,0.558722019,558.722019,6.325652067,25,persistent,2.8245,0.5,up,0.575968981,575.968981,6.356053807,26,talented,2.8245,0.5,down,0.706822872,706.822872,6.5607801,27,confident,2.8245,0.5,up,0.959559202,959.559202,6.866474014,28,orderly,2.8245,-0.5,down,1.34278512,1342.78512,7.202501184,29,fearful,2.8245,0.5,down,1.325956106,1325.956106,7.189889068,30,trusting,2.8245,0.5,down,0.657825947,657.825947,6.488940378,31,enthusiastic,2.8245,-0.5,down,0.525635004,525.635004,6.264607063,32,withdrawn,2.8245,-0.5,down,0.65888381,658.88381,6.490547206,33,worrying,2.8245,0.5,up,1.160884857,1160.884857,7.056937801,34,wise,2.8245,0.5,down,0.809773922,809.773922,6.6967551,35,tender,2.8245,-0.5,down,0.625562191,625.562191,6.438650751,36,inhibited,2.8245,0.5,down,0.525614023,525.614023,6.264567147,37,ambitious,2.8245,0.5,down,0.442890882,442.890882,6.093323424,38,thrifty,2.8245,-0.5,down,0.426103115,426.103115,6.054681371,39,childish,2.8245,-0.5,down,1.009515047,1009.515047,6.917225343,40,clumsy,2.8246,0.5,up,0.69254899,692.54899,6.540378979,1,ambitious,3.8246,0.5,up,0.824956179,824.956179,6.715330269,2,persistent,3.8246,0.5,up,0.925118923,925.118923,6.829922295,3,talented,3.8246,-0.5,up,1.191679955,1191.679955,7.083119317,4,forgetful,3.8246,0.5,down,1.243154049,1243.154049,7.125407017,5,tender,3.8246,0.5,up,0.925137043,925.137043,6.829941881,6,idealistic,3.8246,0.5,up,0.892607212,892.607212,6.794146632,7,trusting,3.8246,0.5,up,0.67553401,675.53401,6.515503504,8,confident,3.8246,0.5,up,0.726619005,726.619005,6.588402276,9,proud,3.8246,0.5,up,0.542455196,542.455196,6.296105494,10,brilliant,3.8246,0.5,up,0.891483068,891.483068,6.792886444,11,disciplined,3.8246,0.5,up,0.777546883,777.546883,6.656143942,12,wise,3.8246,-0.5,down,0.942261934,942.261934,6.848283297,13,impulsive,3.8246,-0.5,up,1.293519974,1293.519974,7.165122443,14,moody,3.8246,-0.5,down,1.792013884,1792.013884,7.491095341,15,stubborn,3.8246,-0.5,up,1.276358128,1276.358128,7.151766089,16,boring,3.8246,-0.5,up,1.909022093,1909.022093,7.554346397,17,gullible,3.8246,-0.5,down,0.958925962,958.925962,6.865813869,18,cynical,3.8246,-0.5,down,1.543444872,1543.444872,7.341772127,19,timid,3.8246,0.5,up,1.075290918,1075.290918,6.980346525,20,outgoing,3.8246,0.5,up,0.908666849,908.666849,6.811978524,21,artistic,3.8246,0.5,up,0.742970943,742.970943,6.610656936,22,orderly,3.8246,-0.5,down,0.843596935,843.596935,6.737674815,23,messy,3.8246,0.5,up,0.827605963,827.605963,6.718537151,24,neat,3.8246,-0.5,down,1.025181055,1025.181055,6.932624515,25,antisocial,3.8246,-0.5,down,0.993389845,993.389845,6.90112318,26,clumsy,3.8246,0.5,up,0.706416845,706.416845,6.560205495,27,courageous,3.8246,-0.5,down,1.175549984,1175.549984,7.069491389,28,withdrawn,3.8246,0.5,up,0.811151981,811.151981,6.698455436,29,tidy,3.8246,0.5,up,1.359484196,1359.484196,7.214860639,30,thrifty,3.8246,-0.5,down,1.459306955,1459.306955,7.285716914,31,childish,3.8246,0.5,up,0.725599051,725.599051,6.586997591,32,inventive,3.8246,-0.5,down,1.342133999,1342.133999,7.202016163,33,inhibited,3.8246,-0.5,up,0.674997091,674.997091,6.514708381,34,irritable,3.8246,-0.5,NA,NA,NA,NA,35,anxious,3.8246,0.5,up,0.641038895,641.038895,6.463090134,36,enthusiastic,3.8246,-0.5,up,0.526015043,526.015043,6.265329811,37,worrying,3.8246,-0.5,down,1.259155035,1259.155035,7.138196168,38,insecure,3.8246,-0.5,down,1.726137877,1726.137877,7.453641751,39,fearful,3.8246,-0.5,up,0.893182993,893.182993,6.794791479,40,tense,3.8247,-0.5,up,1.359450102,1359.450102,7.21483556,1,childish,3247,-0.5,down,2.407898903,2407.898903,7.786509822,2,antisocial,3247,-0.5,up,1.358419895,1358.419895,7.214077461,3,forgetful,3247,0.5,down,0.810968876,810.968876,6.698229676,4,neat,3247,-0.5,up,0.876742125,876.742125,6.776212907,5,clumsy,3247,-0.5,up,0.943392038,943.392038,6.849481931,6,tense,3247,-0.5,up,1.026786089,1026.786089,6.934188901,7,timid,3247,-0.5,up,0.742600918,742.600918,6.610158778,8,insecure,3247,0.5,up,1.224915981,1224.915981,7.110627534,9,persistent,3247,0.5,down,1.058985949,1058.985949,6.965067077,10,brilliant,3247,0.5,down,1.209089994,1209.089994,7.097623285,11,trusting,3247,0.5,down,0.758511066,758.511066,6.631357388,12,courageous,3247,0.5,down,0.727653027,727.653027,6.589824323,13,tidy,3247,0.5,down,0.776046038,776.046038,6.654211846,14,artistic,3247,-0.5,up,0.908554792,908.554792,6.811855196,15,irritable,3247,-0.5,down,1.060018063,1060.018063,6.966041228,16,boring,3247,0.5,down,0.758958817,758.958817,6.631947516,17,inventive,3247,-0.5,up,0.893026114,893.026114,6.794615823,18,fearful,3247,0.5,down,0.609509945,609.509945,6.412655265,19,orderly,3247,-0.5,down,1.424982071,1424.982071,7.261914511,20,withdrawn,3247,0.5,down,0.923844099,923.844099,6.828543333,21,enthusiastic,3247,0.5,down,0.742454052,742.454052,6.609960986,22,outgoing,3247,-0.5,up,0.742741108,742.741108,6.610347543,23,cynical,3247,0.5,down,0.858632088,858.632088,6.755340528,24,idealistic,3247,0.5,down,0.676021814,676.021814,6.516225345,25,talented,3247,-0.5,down,1.008881092,1008.881092,6.916597166,26,gullible,3247,0.5,down,0.673307896,673.307896,6.512202723,27,confident,3247,0.5,down,0.877074957,877.074957,6.776592459,28,proud,3247,0.5,up,1.574805021,1574.805021,7.361886747,29,disciplined,3247,-0.5,up,0.742910862,742.910862,6.610576067,30,anxious,3247,-0.5,up,1.192734957,1192.734957,7.084004232,31,worrying,3247,-0.5,up,0.743552923,743.552923,6.611439944,32,moody,3247,-0.5,up,1.408947945,1408.947945,7.250598567,33,impulsive,3247,0.5,up,1.142432928,1142.432928,7.040915415,34,thrifty,3247,-0.5,up,0.84352684,843.52684,6.737591721,35,messy,3247,-0.5,down,1.908674955,1908.674955,7.554164539,36,inhibited,3247,0.5,down,0.811082125,811.082125,6.698369313,37,wise,3247,0.5,up,1.225422144,1225.422144,7.111040671,38,ambitious,3247,0.5,down,0.909945011,909.945011,6.81338417,39,tender,3247,-0.5,up,1.125637054,1125.637054,7.026104425,40,stubborn,3248,-0.5,down,1.509312868,1509.312868,7.319409772,1,childish,3.8248,0.5,up,1.059844971,1059.844971,6.965877923,2,tender,3.8248,-0.5,down,0.959707022,959.707022,6.866628052,3,boring,3.8248,-0.5,up,1.108947992,1108.947992,7.01116709,4,cynical,3.8248,0.5,up,0.610182047,610.182047,6.41375735,5,proud,3.8248,-0.5,down,0.77538991,775.38991,6.653366013,6,withdrawn,3.8248,0.5,up,0.658771038,658.771038,6.490376036,7,confident,3.8248,-0.5,down,0.75890398,758.90398,6.631875261,8,irritable,3.8248,-0.5,down,0.742797136,742.797136,6.610422974,9,clumsy,3.8248,0.5,down,1.009591103,1009.591103,6.917300679,10,thrifty,3.8248,0.5,up,0.592429876,592.429876,6.384232513,11,outgoing,3.8248,-0.5,down,0.725547075,725.547075,6.586925957,12,inhibited,3.8248,0.5,down,0.809166908,809.166908,6.69600521,13,artistic,3.8248,-0.5,down,0.643573999,643.573999,6.467037015,14,timid,3.8248,-0.5,down,0.859240055,859.240055,6.756048342,15,anxious,3.8248,0.5,up,0.624958992,624.958992,6.437686035,16,disciplined,3.8248,0.5,up,0.959527016,959.527016,6.866440471,17,orderly,3.8248,0.5,up,0.692213058,692.213058,6.539893796,18,ambitious,3.8248,-0.5,down,0.790932894,790.932894,6.673213127,19,antisocial,3.8248,0.5,down,0.727519989,727.519989,6.589641475,20,tidy,3.8248,-0.5,up,1.275876999,1275.876999,7.151389063,21,moody,3.8248,-0.5,up,1.159176826,1159.176826,7.055465399,22,insecure,3.8248,-0.5,up,1.275470972,1275.470972,7.151070779,23,impulsive,3.8248,-0.5,down,1.1922822,1192.2822,7.083624565,24,forgetful,3.8248,0.5,down,0.760943174,760.943174,6.634558682,25,neat,3.8248,-0.5,down,1.875599861,1875.599861,7.536683813,26,worrying,3.8248,-0.5,down,1.007928133,1007.928133,6.915652149,27,tense,3.8248,-0.5,NA,NA,NA,NA,28,stubborn,3.8248,0.5,down,1.358812094,1358.812094,7.214366137,29,brilliant,3.8248,-0.5,up,0.926987171,926.987171,6.831939726,30,messy,3.8248,0.5,down,0.7923491,792.3491,6.675002078,31,inventive,3.8248,0.5,up,0.708622932,708.622932,6.563323554,32,trusting,3.8248,-0.5,down,1.492475033,1492.475033,7.308191117,33,gullible,3.8248,-0.5,down,0.775913,775.913,6.6540404,34,fearful,3.8248,0.5,up,0.677762985,677.762985,6.518797647,35,wise,3.8248,0.5,up,1.058495998,1058.495998,6.96460431,36,courageous,3.8248,0.5,up,0.691054106,691.054106,6.538218122,37,enthusiastic,3.8248,0.5,up,0.692696095,692.696095,6.540591368,38,talented,3.8248,0.5,up,0.858542919,858.542919,6.755236672,39,idealistic,3.8248,0.5,down,0.891485929,891.485929,6.792889654,40,persistent,3.8249,-0.5,up,1.059166908,1059.166908,6.965237942,1,inhibited,4.2249,-0.5,up,0.776870012,776.870012,6.655273042,2,timid,4.2249,-0.5,up,0.991839886,991.839886,6.899561689,3,irritable,4.2